accX,accY,accZ
1.569,-8.784,2.51
1.569,-8.627,2.98
1.569,-8.157,2.824
1.569,-8.157,3.137
1.569,-7.686,3.451
1.412,-7.529,3.608
1.255,-7.216,3.608
1.569,-6.902,3.765
1.412,-6.745,3.765
1.412,-6.745,3.765
1.412,-6.275,4.078
1.412,-6.588,3.765
1.255,-6.431,3.765
1.412,-6.275,3.922
1.255,-6.588,3.765
1.412,-6.588,3.451
1.255,-6.431,3.765
1.098,-6.431,3.451
0.941,-6.431,3.294
0.941,-6.588,3.451
1.098,-6.745,3.451
1.255,-6.902,3.451
1.098,-6.902,3.294
1.412,-7.216,3.922
1.569,-7.373,3.765
1.725,-7.529,4.078
1.882,-7.843,4.392
2.039,-7.686,4.549
2.196,-7.843,4.235
2.196,-8.157,4.392
2.353,-8.314,4.235
2.51,-8.314,4.235
2.824,-8.471,4.392
2.98,-8.314,4.549
3.294,-8.314,4.235
3.294,-8.471,4.392
3.137,-8.471,4.235
3.608,-8.471,4.392
3.451,-8.784,4.235
3.608,-8.784,4.392
4.078,-9.098,4.235
4.078,-9.255,4.078
4.235,-9.412,4.235
4.235,-9.569,4.235
4.392,-10.039,4.235
4.392,-10.196,4.392
4.549,-10.196,4.235
4.078,-9.725,3.922
4.078,-9.725,3.608
4.078,-9.569,3.451
4.235,-9.882,2.98
4.392,-10.353,3.451
4.706,-10.98,3.294
4.706,-11.922,3.608
4.706,-13.02,3.922
5.02,-13.02,4.392
5.333,-13.961,5.02
5.49,-14.118,5.02
5.49,-13.804,4.392
5.49,-13.647,4.078
5.49,-13.647,2.98
5.02,-13.49,2.353
5.02,-13.49,2.039
4.392,-13.49,1.725
3.922,-13.176,1.725
3.294,-13.647,1.569
3.137,-13.804,1.725
2.196,-13.961,1.412
1.725,-13.647,1.569
1.882,-13.333,1.412
1.569,-12.863,1.412
1.412,-12.706,1.412
1.569,-11.922,1.412
1.569,-12.078,1.255
1.569,-10.98,1.098
1.725,-10.196,1.255
1.569,-10.353,1.098
1.882,-10.196,1.569
1.882,-10.196,1.569
2.196,-9.725,0.941
2.196,-9.569,1.098
1.882,-8.941,0.941
1.882,-8.471,0.784
1.882,-8.314,0.941
2.039,-8,0.627
2.039,-7.686,0.784
1.882,-7.529,0.784
1.882,-7.373,0.784
2.039,-7.216,0.784
1.882,-7.529,0.784
2.039,-7.373,0.941
1.882,-7.529,1.098
1.882,-7.216,1.412
2.039,-6.902,1.412
1.882,-6.902,1.412
2.039,-6.745,1.255
2.039,-6.431,1.098
2.196,-6.275,1.412
2.353,-5.961,1.255
2.51,-5.961,1.255
2.98,-5.961,1.412
2.824,-6.118,1.412
2.824,-6.431,1.412
2.824,-6.745,1.569
2.824,-7.059,1.569
2.98,-7.216,1.569
3.137,-7.373,1.569
2.98,-7.843,1.412
3.137,-7.843,1.725
3.294,-8.471,1.725
3.137,-8.784,1.725
3.137,-9.098,1.725
3.137,-9.412,2.039
3.137,-9.569,2.039
3.451,-9.569,1.882
3.451,-9.255,2.353
3.294,-9.255,2.51
3.294,-9.098,2.196
3.137,-9.098,2.196
2.824,-9.569,2.196
2.824,-9.882,1.882
2.51,-11.137,1.569
2.51,-12.235,1.412
2.353,-13.02,1.412
2.196,-13.961,1.569
2.353,-13.333,1.412
2.196,-12.706,1.725
2.51,-12.235,1.725
2.824,-11.294,1.725
3.294,-11.137,2.196
3.294,-10.98,2.51
3.451,-10.824,2.824
3.608,-11.137,3.294
3.608,-10.824,3.608
3.451,-11.137,3.608
3.294,-11.137,3.765
3.137,-11.137,4.078
3.137,-10.824,4.392
2.98,-10.51,4.235
2.98,-10.196,4.078
2.824,-9.725,4.078
2.824,-9.098,3.608
2.667,-8.471,3.294
2.51,-7.843,3.137
2.353,-7.373,3.137
2.196,-6.588,3.137
2.196,-6.745,3.137
1.882,-6.431,3.137
2.196,-6.275,3.137
2.196,-5.961,3.451
2.51,-5.961,3.608
2.667,-6.275,3.922
3.137,-6.431,4.706
3.294,-6.745,4.706
3.451,-6.588,4.549
3.451,-6.745,4.863
3.451,-6.745,4.863
3.922,-6.902,4.549
3.922,-6.902,4.706
3.765,-7.059,4.549
3.765,-7.216,4.549
3.922,-7.216,4.392
3.765,-7.373,4.706
3.765,-8,4.706
3.922,-8.627,4.863
3.608,-8.784,5.176
3.765,-9.255,5.333
3.922,-8.941,5.333
4.078,-9.098,5.647
3.922,-9.255,5.333
3.922,-9.412,5.02
3.608,-9.569,4.863
3.608,-9.725,4.863
3.765,-10.039,4.706
3.451,-10.353,5.02
3.765,-10.51,5.333
3.922,-10.51,5.176
4.078,-11.294,5.647
4.235,-11.294,5.804
4.392,-11.451,5.647
4.392,-11.294,5.176
4.549,-11.137,5.176
4.706,-10.824,4.863
4.706,-10.51,4.706
4.863,-9.882,4.235
4.706,-9.412,3.451
5.02,-9.098,3.451
5.176,-8.784,3.137
5.804,-9.255,3.294
6.431,-9.725,3.451
6.588,-10.039,3.765
7.843,-11.137,4.392
9.098,-12.235,5.176
9.882,-12.235,5.333
10.353,-12.863,5.49
10.353,-13.49,4.863
10.196,-13.961,3.608
10.196,-14.275,3.451
9.569,-13.961,2.824
8.784,-13.647,2.196
8.784,-13.49,2.039
8,-13.333,1.882
7.686,-13.02,1.882
6.745,-12.863,2.039
6.745,-12.863,1.725
6.275,-12.706,2.353
5.961,-12.549,2.353
5.804,-12.549,2.667
5.49,-12.235,2.98
5.333,-11.765,2.98
5.176,-11.451,3.294
5.02,-11.137,3.294
4.863,-10.667,3.608
4.863,-10.039,3.294
5.176,-9.882,3.137
5.02,-9.098,2.98
5.176,-9.098,2.667
4.863,-8.471,2.667
4.863,-8.157,2.51
4.706,-7.843,2.51
4.863,-7.686,2.51
4.863,-7.686,2.667
4.706,-7.373,2.667
4.706,-7.373,2.667
4.863,-7.373,2.98
4.549,-7.373,3.137
4.549,-7.216,3.137
4.392,-7.373,3.137
4.235,-7.059,3.294
4.235,-7.059,3.294
4.078,-6.902,2.98
3.922,-6.588,2.824
3.922,-6.431,2.824
3.922,-6.431,2.51
4.078,-6.588,2.824
4.078,-6.588,2.824
3.922,-6.431,2.51
3.608,-6.275,2.51
3.451,-5.961,2.667
3.137,-6.118,2.51
2.98,-5.961,2.196
2.667,-5.333,2.039
2.824,-5.176,1.882
2.353,-5.176,2.196
2.51,-5.333,2.039
2.196,-5.176,2.039
1.882,-5.49,2.196
2.039,-5.333,2.196
2.039,-5.49,2.353
2.196,-5.333,2.353
2.196,-5.647,2.196
2.196,-5.49,2.51
2.196,-5.961,2.51
2.039,-6.431,2.51
2.039,-6.588,2.353
2.196,-7.059,2.824
2.353,-7.373,2.98
2.667,-8.314,2.98
2.824,-8.784,3.137
3.137,-9.412,3.451
3.451,-9.569,3.451
3.294,-9.412,4.078
2.98,-9.725,4.235
2.824,-10.039,4.235
2.51,-10.039,4.392
2.039,-10.196,4.078
1.725,-10.51,4.078
1.255,-10.98,3.608
0.941,-11.137,3.608
0.471,-11.294,3.451
0.314,-11.451,3.294
0.157,-11.608,3.137
0.314,-11.608,2.98
0.471,-11.922,3.294
0.471,-12.078,3.294
0.471,-11.765,3.451
1.098,-11.608,3.922
0.941,-11.922,3.765
1.098,-11.608,3.922
1.412,-11.765,3.765
1.725,-11.765,3.922
2.353,-11.608,3.451
2.196,-11.765,3.294
2.667,-11.765,2.667
2.824,-11.451,2.824
3.451,-11.765,2.667
3.451,-11.765,2.98
4.235,-11.765,3.451
5.176,-11.922,3.765
5.49,-11.765,3.765
5.961,-11.765,3.922
5.804,-12.078,4.392
6.118,-12.078,4.392
6.275,-11.922,4.392
6.902,-12.078,4.392
7.529,-11.922,4.235
7.686,-11.765,4.235
8.157,-11.294,4.235
8.471,-11.294,4.078
8.784,-10.98,4.549
8.784,-11.137,5.02
8.941,-10.824,5.49
8.784,-10.824,5.961
8.784,-10.824,5.961
9.098,-11.137,5.961
9.255,-11.451,5.647
9.255,-12.078,5.176
9.569,-11.922,4.863
10.196,-12.235,4.549
11.137,-12.078,4.549
11.608,-11.765,4.392
12.549,-11.137,4.078
13.02,-10.667,3.922
13.02,-10.353,3.922
13.02,-10.039,3.608
12.549,-9.569,3.294
12.235,-8.941,2.667
12.235,-9.098,2.51
11.922,-9.725,2.039
12.235,-10.353,1.882
12.392,-11.137,1.725
12.549,-11.294,1.725
12.706,-12.235,1.725
12.235,-13.647,1.882
11.765,-13.961,1.725
10.824,-15.216,1.412
9.882,-15.529,1.098
8.314,-16.784,0.314
7.059,-17.255,0.314
5.333,-18.353,-0.314
4.078,-19.294,0
3.765,-19.451,0.157
2.51,-19.922,0.784
2.039,-20.235,1.255
1.569,-20.235,1.725
1.098,-20.078,2.353
0.314,-19.765,2.196
-0.157,-18.98,2.824
0,-18.353,2.667
0,-16.627,2.667
0.157,-15.529,2.353
0.471,-13.647,2.353
0.941,-12.235,2.039
1.569,-11.608,1.725
1.882,-10.98,1.882
2.353,-10.824,2.039
2.824,-10.667,2.196
2.824,-10.353,2.196
3.137,-10.51,2.039
3.137,-10.353,2.353
3.137,-10.039,2.353
3.137,-9.725,2.039
2.98,-9.569,2.196
2.98,-9.098,1.569
2.667,-8.784,1.725
2.51,-8.471,1.255
2.196,-7.686,1.255
2.039,-7.686,1.255
1.725,-7.686,1.098
1.725,-7.529,1.098
1.255,-6.902,1.098
1.255,-6.745,1.098
0.941,-6.275,0.941
0.941,-6.118,1.255
0.941,-6.118,1.098
0.784,-6.588,1.412
0.627,-6.902,1.412
0.784,-7.216,1.255
0.784,-7.216,1.255
0.784,-7.373,1.725
0.941,-7.216,1.255
1.098,-7.059,1.569
1.098,-6.745,1.569
0.941,-6.902,1.412
0.941,-6.588,1.412
0.941,-6.588,1.098
0.941,-6.902,1.255
0.941,-6.902,1.412
0.784,-6.902,1.725
0.784,-6.902,1.412
0.941,-7.059,1.569
1.098,-7.059,1.569
1.412,-6.902,1.569
1.412,-7.059,1.882
1.725,-7.843,1.882
2.196,-8.157,2.196
2.667,-9.255,2.51
3.137,-9.725,2.51
3.451,-10.51,3.137
3.765,-10.98,3.294
4.078,-11.608,3.451
4.078,-11.608,4.078
4.078,-11.765,4.078
3.765,-11.922,4.392
3.608,-12.078,4.392
3.137,-12.863,4.549
2.824,-13.176,4.863
2.353,-14.118,4.549
1.412,-14.588,4.235
1.098,-14.902,3.922
0.627,-15.529,3.451
0.314,-15.216,3.608
-0.157,-15.373,3.294
-0.157,-15.373,3.294
-0.314,-15.059,3.294
-0.314,-14.745,3.608
-0.157,-14.902,3.765
-0.314,-14.745,4.078
-0.314,-14.431,4.235
-0.314,-14.118,4.392
-0.314,-13.804,4.392
0,-13.647,4.078
0.314,-13.49,3.608
0.784,-13.804,3.451
1.569,-13.961,3.137
1.725,-13.804,3.294
2.667,-14.118,3.608
2.824,-14.275,3.765
3.451,-14.118,3.608
4.078,-13.647,3.608
4.392,-13.333,3.451
4.863,-12.235,2.51
5.176,-11.765,2.039
5.804,-10.51,1.255
6.275,-10.196,0.784
7.686,-9.255,0.314
9.098,-8.627,0
9.725,-8.941,-0.157
10.98,-9.098,0
11.608,-9.725,-0.157
13.02,-10.039,0.314
13.647,-10.196,0.314
14.588,-10.353,0.627
15.059,-10.039,0.627
15.216,-9.725,0.471
15.216,-9.098,0.314
15.373,-9.098,0.157
14.431,-8.941,-0.157
13.961,-9.098,-0.314
12.863,-9.725,-0.627
11.765,-9.882,-0.471
11.608,-9.882,-0.471
10.824,-9.882,-0.314
10.667,-9.725,0
10.353,-9.725,0.314
10.196,-9.725,0.627
9.725,-9.725,0.784
9.412,-9.412,0.784
9.098,-9.412,0.627
8.941,-9.725,0.627
8.941,-9.725,0.627
9.098,-10.98,0.314
9.255,-11.608,0.314
9.569,-14.118,0.627
9.569,-15.843,1.569
10.039,-16.627,2.039
9.725,-17.098,2.51
9.412,-16.784,2.196
8.471,-16.941,1.412
8.314,-17.098,1.098
7.216,-18.039,0.314
6.431,-18.824,-0.314
5.961,-19.137,-0.471
5.02,-19.608,-0.627
4.706,-19.765,-0.627
4.078,-19.608,-0.314
3.922,-18.51,0.627
2.824,-18.667,0.941
1.569,-18.196,1.725
1.255,-17.569,2.039
0.627,-16.941,2.196
0.471,-16.314,2.196
0.471,-14.745,2.667
0.627,-13.49,2.667
1.098,-13.02,3.137
0.941,-12.078,3.608
0.941,-11.765,3.765
1.412,-11.137,4.235
1.412,-10.98,4.078
1.098,-10.353,3.608
1.255,-9.725,3.294
1.255,-9.569,3.294
1.412,-9.255,2.667
1.412,-8.941,2.824
1.569,-8.627,2.51
1.412,-8.627,2.196
1.569,-8.471,2.039
1.569,-8.784,2.039
1.569,-8.784,1.725
1.412,-8.627,2.039
1.255,-9.098,2.039
0.784,-8.941,2.196
0.627,-8.627,2.196
0.314,-8.314,2.353
-0.157,-8.314,2.353
-0.157,-8,2.667
-0.314,-7.843,2.196
-0.314,-7.529,2.51
-0.157,-7.216,1.882
-0.314,-7.373,1.725
-0.314,-7.059,1.569
-0.157,-6.588,1.255
0.157,-6.745,1.098
0.157,-6.118,1.098
0.314,-6.431,1.098
0.627,-5.961,0.784
0.784,-5.804,1.412
0.941,-5.647,1.569
1.098,-5.333,1.412
1.098,-5.02,1.569
1.255,-5.333,2.353
1.412,-5.333,2.51
1.725,-5.333,2.824
2.196,-5.49,3.451
2.51,-6.118,3.608
2.353,-6.902,4.235
2.196,-7.686,4.078
2.51,-8.627,4.235
2.824,-8.941,4.392
3.765,-9.412,4.392
3.765,-9.882,4.235
4.078,-9.725,3.922
4.392,-10.039,4.706
4.549,-10.039,4.863
4.706,-10.51,6.275
4.863,-10.98,6.275
4.549,-11.765,6.902
4.706,-12.078,6.902
3.294,-12.392,6.431
2.196,-12.863,5.647
1.725,-12.863,5.333
0.941,-13.02,4.078
0.784,-13.02,3.451
0.314,-13.02,2.667
0,-13.176,2.51
0.157,-13.02,2.196
0.157,-12.549,2.353
0,-12.706,2.51
-0.157,-12.549,2.51
-0.314,-12.549,2.667
-0.157,-12.863,3.294
-0.157,-13.02,3.451
0.157,-13.176,3.608
0.941,-13.02,3.294
1.412,-13.333,3.294
2.353,-13.49,2.98
3.137,-13.333,3.137
4.392,-13.333,3.137
4.706,-13.49,3.608
5.804,-13.49,3.922
7.216,-13.176,4.549
7.529,-12.863,4.863
8.471,-12.235,4.549
9.255,-11.608,4.706
10.196,-10.824,4.549
10.51,-10.353,4.235
10.98,-10.353,5.333
11.294,-10.353,6.745
11.451,-10.039,7.059
11.451,-9.882,7.529
11.294,-9.725,7.373
10.51,-9.098,6.745
10.196,-8.941,6.275
9.412,-8.784,5.647
8.784,-9.255,5.333
8.314,-9.412,4.863
7.529,-10.039,4.863
7.373,-10.353,4.392
6.745,-10.667,4.549
6.745,-10.667,3.922
7.059,-10.51,3.765
6.902,-10.667,2.98
6.902,-10.667,2.98
7.216,-10.667,2.667
7.686,-10.667,2.51
8,-10.667,2.353
8.627,-10.667,2.353
8.941,-10.196,2.039
9.412,-10.039,2.039
9.412,-9.882,1.725
9.882,-10.039,1.412
10.039,-10.51,1.255
10.196,-11.922,1.412
10.039,-13.02,1.882
10.039,-15.216,2.667
9.882,-16.471,3.922
9.882,-16.471,4.078
9.412,-16.471,4.078
9.098,-17.098,4.235
8.314,-17.725,3.451
7.843,-18.039,2.824
7.686,-19.137,1.882
6.902,-19.922,1.725
6.275,-20.235,1.569
5.333,-20.706,1.569
4.706,-21.02,1.882
3.451,-20.706,1.882
2.98,-19.765,1.725
1.569,-19.451,1.725
0.784,-18.039,1.725
0.627,-17.255,1.882
0.157,-15.529,2.353
0.157,-14.902,2.667
-0.157,-13.647,3.608
-0.314,-12.706,4.078
-0.314,-12.078,3.922
-0.157,-11.294,4.078
-0.471,-10.98,4.078
-0.314,-10.353,3.451
-0.314,-10.196,3.765
-0.314,-9.412,3.294
0,-8.627,2.98
0.157,-8.627,2.824
0.627,-8.157,2.51
0.784,-8,2.667
1.098,-7.686,2.667
1.098,-8,2.667
1.412,-7.686,2.51
1.255,-7.529,2.824
1.255,-7.529,2.667
1.098,-7.216,2.51
0.941,-6.902,2.824
0.784,-6.745,2.824
0.627,-6.588,2.667
0.314,-6.588,2.51
0,-6.588,2.51
0.157,-6.588,2.196
0.314,-6.902,2.039
0.314,-7.059,1.882
0.157,-7.216,1.725
0.157,-7.216,1.569
0.157,-7.059,1.255
0.314,-7.216,0.941
0,-6.902,0.784
0.157,-6.902,0.627
0,-6.588,0.471
0,-6.745,0.471
0.157,-6.588,0.471
0.314,-6.275,0
0.471,-6.118,0.471
0.471,-5.961,0.314
0.941,-5.804,0.471
1.098,-5.804,0.784
1.412,-5.961,0.941
1.882,-6.118,1.255
2.196,-7.059,2.039
2.824,-8,2.039
3.294,-8.627,2.353
4.235,-9.569,2.824
4.549,-9.882,2.98
5.333,-10.039,3.137
5.02,-10.196,3.451
5.176,-10.353,3.451
4.863,-10.667,3.608
4.706,-10.98,3.765
3.922,-11.608,3.922
3.765,-11.922,4.078
3.294,-12.863,4.235
2.98,-12.863,4.235
2.51,-13.333,4.392
1.725,-14.118,4.549
1.412,-14.588,4.863
0.941,-15.373,5.333
0.627,-15.529,5.02
0.314,-15.529,5.333
0.157,-15.529,5.333
-0.157,-15.059,5.176
-0.471,-14.745,4.549
-0.471,-14.745,4.392
0,-14.431,3.922
-0.157,-14.275,3.608
0.471,-13.961,3.137
0.627,-13.804,2.98
1.098,-13.49,2.824
1.725,-13.333,2.824
2.196,-13.333,2.98
2.98,-13.647,3.294
3.608,-13.647,3.765
4.706,-13.647,4.078
5.333,-13.804,4.078
6.745,-13.176,4.706
8.471,-12.549,5.49
9.412,-11.922,5.804
10.98,-10.98,6.118
11.137,-10.353,6.118
10.98,-9.725,5.49
10.51,-9.569,5.333
10.196,-9.882,4.706
9.725,-10.196,5.02
9.255,-10.353,5.02
9.255,-10.353,5.02
8.784,-10.51,5.176
8.314,-10.51,5.176
8.471,-10.667,5.333
7.843,-10.667,5.02
7.843,-10.824,4.706
8,-10.98,4.863
8.157,-10.98,4.706
8.471,-10.824,5.02
9.255,-10.667,5.176
9.569,-10.51,5.647
9.725,-10.196,5.804
9.725,-10.51,5.333
9.882,-10.353,5.333
9.569,-10.196,4.549
9.255,-9.882,4.392
9.255,-10.196,3.922
8.941,-10.824,3.765
9.255,-12.392,3.451
9.412,-14.275,3.922
9.255,-14.745,3.765
8.784,-15.373,3.922
8.627,-15.529,3.922
7.529,-15.686,3.608
7.373,-15.686,3.137
6.431,-16.314,2.353
5.333,-17.255,1.725
4.706,-17.882,1.569
3.765,-18.98,1.725
3.137,-19.294,1.725
2.353,-19.137,1.725
1.725,-19.294,1.569
1.412,-18.51,1.569
0.784,-17.412,1.725
0.941,-16.941,1.725
1.098,-15.843,2.196
1.412,-15.216,2.196
1.569,-14.431,2.667
1.569,-14.118,2.667
1.882,-13.176,2.98
1.882,-12.235,2.98
1.725,-11.922,2.667
2.196,-11.294,2.039
2.196,-10.98,1.882
2.196,-10.667,1.725
2.353,-10.51,1.569
2.667,-10.196,1.098
2.667,-10.196,0.627
2.667,-10.353,0.314
2.667,-10.353,-0.157
2.824,-10.353,-0.314
2.667,-10.51,-0.314
2.667,-10.353,-0.314
2.196,-10.039,-0.314
2.353,-9.725,-0.314
1.882,-9.725,0
1.569,-9.255,0.627
1.412,-9.255,0.941
1.255,-8.941,1.882
1.725,-8.471,2.196
1.255,-8,2.353
1.412,-7.843,2.196
1.098,-7.373,2.039
0.784,-7.216,1.882
0.627,-7.373,1.412
0.314,-7.216,1.412
0.314,-7.216,1.255
0.314,-7.216,0.941
0,-6.588,0.941
-0.157,-6.745,1.255
-0.157,-6.745,1.725
0.157,-6.745,1.882
0.157,-7.059,2.196
0.157,-7.373,2.353
0,-7.529,2.51
0,-7.373,2.196
-0.314,-7.216,2.196
-0.941,-6.902,2.353
-0.941,-6.588,2.353
-0.941,-6.275,2.667
-0.627,-7.216,2.824
-0.157,-7.686,2.667
0.157,-8.784,2.353
0.941,-9.098,2.353
2.039,-9.725,2.353
2.353,-9.882,2.353
3.451,-10.353,2.667
3.922,-10.667,3.137
4.392,-11.137,3.608
5.02,-11.765,4.078
5.333,-12.235,4.235
5.804,-13.176,4.706
6.275,-13.647,4.863
5.961,-14.431,4.549
5.333,-15.059,4.392
4.863,-15.216,4.706
4.392,-14.902,4.392
4.235,-14.902,4.235
3.922,-14.745,4.706
3.922,-14.588,4.549
3.922,-14.275,5.333
3.451,-13.804,6.275
3.451,-13.49,6.588
3.451,-12.549,6.588
3.294,-12.235,6.275
2.824,-11.294,6.118
2.667,-10.98,6.118
2.196,-10.353,5.647
2.039,-9.725,5.02
2.039,-9.569,4.706
1.725,-9.412,4.078
1.725,-9.569,3.765
1.569,-9.412,3.765
1.569,-9.412,3.608
1.569,-9.412,3.451
1.725,-9.098,3.765
2.039,-8.941,3.922
2.353,-8.941,3.922
2.51,-8.941,4.078
3.137,-8.941,4.706
3.608,-8.941,4.706
4.706,-9.412,5.02
5.49,-10.039,6.118
6.118,-10.353,6.902
7.529,-11.451,8.157
8,-11.765,8.784
9.412,-12.706,9.725
9.882,-13.02,10.667
10.667,-13.333,11.608
10.196,-12.392,11.765
9.882,-11.294,10.824
9.255,-10.353,9.725
8.471,-10.196,9.098
7.843,-10.51,7.843
7.529,-11.137,7.373
6.745,-11.137,6.431
6.588,-11.294,5.804
6.431,-11.137,5.333
5.961,-10.98,5.02
5.961,-10.667,4.863
6.275,-10.196,4.392
6.275,-10.196,4.235
6.431,-9.725,3.765
6.745,-9.255,3.137
6.745,-9.569,2.824
6.902,-10.196,2.196
6.745,-10.667,2.196
6.902,-11.294,2.667
7.059,-12.078,2.667
6.902,-12.235,2.667
6.745,-12.863,2.98
6.745,-13.49,2.51
6.431,-14.431,2.353
6.588,-15.373,2.039
6.275,-16.314,1.255
6.118,-16.941,1.098
5.804,-17.255,0.627
5.49,-17.569,0.471
5.49,-17.412,0.627
5.176,-17.412,0.627
4.863,-17.255,0.627
4.706,-16.784,1.569
4.706,-16.314,1.882
4.549,-16.471,2.98
4.392,-16.314,3.608
4.706,-15.843,3.765
4.549,-14.588,3.765
4.392,-13.961,3.765
3.765,-12.392,3.137
3.608,-11.608,2.98
3.451,-10.353,2.98
3.294,-10.196,3.137
3.294,-10.039,3.451
2.667,-9.725,4.235
2.824,-9.882,4.078
1.882,-10.039,4.078
0.941,-9.882,4.549
0.784,-9.882,4.549
0.314,-9.725,4.706
0.314,-9.412,4.706
0.157,-9.098,4.863
0,-8.784,4.706
-0.157,-8.314,4.549
0,-7.686,4.078
0.471,-7.529,3.765
0.784,-7.059,3.451
0.941,-6.745,3.451
1.098,-6.745,3.922
0.941,-6.745,4.078
0.471,-7.373,5.02
0,-7.843,5.647
-0.314,-7.843,5.804
-0.784,-8,5.647
-0.471,-7.686,5.647
-0.314,-7.373,4.863
0,-7.059,4.078
1.255,-6.431,3.294
2.039,-6.431,2.98
2.039,-6.588,2.667
1.569,-6.588,2.353
1.412,-6.902,2.196
0.627,-6.588,1.569
0.627,-6.588,1.255
0.314,-6.431,1.098
0.471,-6.275,0.784
0.471,-6.275,0.784
0.627,-6.275,0.941
0.627,-6.275,0.941
1.098,-7.216,1.569
1.098,-7.686,1.412
1.569,-8.784,1.412
2.039,-10.196,1.569
2.196,-10.51,1.882
2.51,-11.608,1.882
3.137,-11.922,1.882
3.294,-12.392,2.667
3.765,-12.863,2.51
3.922,-13.02,3.294
3.765,-13.49,3.451
3.608,-13.804,3.922
3.294,-14.275,4.078
3.137,-14.431,4.078
2.824,-14.588,4.078
2.824,-14.431,4.078
2.667,-14.588,3.922
2.51,-14.431,4.078
2.51,-14.118,4.078
2.353,-13.961,3.922
2.196,-13.647,3.765
1.882,-13.333,4.078
1.569,-13.176,3.922
1.569,-12.706,3.922
1.255,-12.549,4.235
1.255,-12.549,4.549
1.098,-12.392,4.863
1.255,-12.706,5.176
1.412,-12.706,5.333
1.882,-12.392,5.333
2.51,-12.392,5.333
3.137,-12.392,5.333
3.608,-12.392,5.333
4.549,-12.235,5.804
4.863,-12.392,5.49
5.647,-11.922,5.49
5.961,-11.922,5.49
6.745,-11.137,5.02
7.529,-10.667,4.392
7.843,-10.353,4.392
8.471,-9.882,4.235
9.098,-9.569,4.392
10.039,-9.725,4.863
10.196,-9.882,5.176
10.98,-9.882,5.961
11.137,-9.882,5.647
10.98,-9.725,5.49
10.353,-10.039,5.176
10.196,-10.196,5.02
9.412,-10.353,4.549
9.255,-10.51,4.235
8.471,-10.353,3.922
7.686,-10.51,3.765
7.686,-10.667,3.451
7.059,-11.294,3.608
7.059,-11.608,3.294
7.216,-11.765,2.98
7.373,-11.922,3.294
7.686,-12.235,3.294
8.314,-11.922,2.98
8.471,-11.765,2.667
8.157,-11.922,2.196
8,-12.235,2.039
7.686,-12.392,1.882
7.529,-12.706,2.196
7.529,-13.647,2.039
7.529,-15.059,2.353
7.686,-15.843,2.667
7.373,-16.627,3.608
7.216,-16.941,3.765
6.588,-16.941,4.235
6.431,-16.784,4.549
5.804,-17.255,4.078
4.706,-17.569,3.294
4.235,-17.882,2.98
3.294,-18.039,1.725
2.98,-18.196,1.412
2.039,-17.725,1.098
2.039,-17.412,0.157
2.039,-16.314,0.471
2.196,-14.745,0.627
2.196,-14.275,0.784
2.824,-13.647,0.941
2.98,-13.804,1.098
2.98,-13.961,1.725
2.98,-13.804,2.039
2.824,-13.333,2.039
2.98,-12.235,2.353
2.98,-12.078,2.353
2.824,-11.294,2.353
2.824,-10.824,2.196
2.667,-10.196,1.569
2.824,-9.725,1.255
2.824,-9.725,1.098
2.98,-9.412,0.627
2.824,-9.255,0.471
3.294,-9.255,0.157
3.294,-8.941,0.314
3.294,-8.627,0.314
2.98,-8,0.784
2.824,-7.843,0.627
2.353,-7.373,0.784
2.196,-7.059,0.941
1.255,-6.745,0.784
0.941,-6.588,1.255
0,-6.588,1.882
0,-6.902,2.824
0,-6.745,2.824
0.314,-7.216,2.98
0.471,-7.216,2.824
0.627,-7.059,2.667
0.627,-6.902,2.353
0.314,-6.275,2.196
0.157,-5.961,1.725
-0.157,-5.49,1.569
-0.314,-5.02,1.255
-0.471,-4.863,1.255
0,-4.549,1.255
0,-4.549,1.255
0.471,-4.863,1.412
0.627,-5.647,1.725
0.784,-5.804,1.569
1.098,-6.588,2.039
1.098,-7.059,2.196
0.941,-7.686,1.725
1.255,-7.529,1.569
2.196,-8,1.725
2.196,-8.314,1.725
2.667,-8.627,1.882
2.824,-9.569,2.196
2.98,-10.196,1.882
3.137,-10.98,1.882
3.608,-11.137,1.725
4.235,-12.706,2.196
4.706,-13.333,2.353
5.02,-13.02,2.51
4.863,-12.863,2.667
4.706,-12.863,2.824
4.706,-13.333,3.137
4.706,-13.804,3.294
4.863,-14.431,3.451
4.863,-15.216,3.294
4.706,-15.373,3.451
3.922,-15.529,3.137
3.608,-15.843,3.294
2.98,-15.529,2.98
2.667,-15.529,2.98
2.824,-15.059,3.451
2.98,-14.588,3.294
3.294,-14.275,3.294
3.451,-13.49,3.608
3.451,-12.863,3.451
2.98,-12.078,3.922
2.824,-11.451,4.078
2.667,-10.667,4.078
2.353,-10.196,3.922
2.353,-10.039,3.765
2.353,-9.725,3.608
2.353,-9.725,3.922
2.353,-9.569,3.765
2.353,-9.255,3.451
2.667,-8.784,3.608
3.137,-8.471,2.98
3.137,-8.314,3.294
3.608,-7.843,3.294
3.765,-7.529,3.451
4.078,-7.686,3.451
4.078,-7.373,3.451
4.078,-7.373,3.294
3.922,-7.529,3.294
3.922,-7.686,3.294
4.078,-8.314,3.137
4.392,-8.627,2.824
4.706,-8.941,3.137
5.02,-9.255,3.137
5.49,-9.569,3.765
5.961,-10.039,4.549
6.275,-10.353,4.863
7.059,-10.98,5.647
7.373,-10.98,5.333
7.843,-12.078,5.961
8.314,-12.549,5.961
8.784,-13.176,6.431
9.882,-13.647,6.588
10.196,-13.647,6.745
10.824,-13.176,6.431
10.98,-12.863,6.431
10.824,-12.078,5.961
10.824,-11.765,5.333
9.882,-10.98,4.863
8.471,-10.196,4.078
8.157,-9.882,3.922
7.059,-9.725,3.137
6.588,-10.353,3.294
6.431,-12.863,3.137
6.118,-13.647,3.451
6.431,-14.745,3.922
6.902,-15.686,4.549
7.216,-15.843,4.706
7.686,-15.686,4.392
8.314,-15.686,4.078
8.784,-16,3.608
8.627,-16.941,2.98
8.314,-18.196,2.51
7.529,-18.98,1.882
7.059,-19.137,1.725
5.804,-19.451,1.098
5.176,-19.294,1.098
3.765,-19.294,0.941
3.137,-19.294,0.941
2.196,-18.824,0.784
1.412,-18.039,1.098
0.941,-17.725,1.412
0.314,-16.627,1.882
0.314,-15.686,2.039
0.157,-14.431,2.51
0.157,-13.49,2.667
0,-12.392,2.98
-0.157,-11.137,2.98
0,-10.667,2.824
0.314,-10.039,2.667
0.627,-9.725,2.51
0.784,-9.098,2.353
0.941,-8.941,1.882
1.255,-8.314,1.725
1.725,-8,1.255
2.039,-7.686,1.098
2.196,-7.373,0.941
2.353,-7.529,1.098
2.667,-7.059,0.941
2.51,-6.745,1.098
2.824,-6.588,0.941
2.51,-6.588,0.941
2.353,-6.588,1.098
1.882,-7.059,1.255
1.569,-7.059,1.098
1.569,-7.059,1.098
1.569,-7.059,1.098
1.255,-6.745,1.255
1.412,-7.059,1.255
1.725,-7.059,1.098
1.725,-6.902,0.784
2.039,-7.216,1.255
2.196,-7.216,1.412
2.353,-7.686,1.255
1.882,-7.843,1.569
1.412,-7.529,1.412
0.784,-8,1.569
0.471,-7.843,1.725
0.314,-8,1.569
0,-7.373,1.882
0,-7.373,1.882
0,-7.216,2.039
-0.157,-7.059,2.039
-0.157,-6.902,2.039
0.157,-7.059,2.196
0.157,-6.902,2.196
0.627,-7.686,2.353
0.941,-8.157,2.667
1.569,-8.471,2.824
2.196,-8.941,2.824
2.353,-9.098,2.98
2.667,-9.725,3.294
2.824,-9.882,3.137
3.294,-10.353,3.294
3.451,-10.824,3.608
3.294,-11.294,3.451
2.98,-12.235,3.451
2.51,-12.706,3.451
1.882,-14.118,3.294
2.039,-14.431,3.294
1.569,-15.373,3.137
1.255,-15.686,3.294
1.255,-15.686,3.451
1.412,-15.686,3.765
1.569,-15.686,4.078
1.569,-15.373,4.392
1.725,-15.216,4.549
1.882,-15.059,4.863
1.882,-14.275,5.02
1.882,-13.961,5.176
2.039,-13.333,4.863
2.039,-13.02,4.706
1.882,-12.235,4.706
1.725,-12.235,4.863
1.725,-12.078,4.549
2.196,-11.608,4.392
1.882,-11.608,4.549
1.882,-11.294,4.549
2.196,-11.294,4.549
2.353,-11.137,4.078
2.196,-10.98,4.078
2.667,-10.51,3.137
2.98,-10.039,2.98
3.451,-9.882,2.51
4.078,-9.412,2.667
4.706,-9.255,2.51
5.49,-8.784,2.353
6.275,-8.941,2.039
7.216,-8.627,2.039
8.314,-8.314,2.039
8.627,-8,1.882
9.412,-7.843,2.196
9.569,-8,2.196
9.882,-8.314,2.353
9.725,-8.784,2.667
9.412,-9.569,2.51
9.098,-10.353,2.824
8.941,-10.667,3.137
8.941,-10.98,3.451
9.412,-11.294,3.765
9.725,-11.294,4.078
9.725,-11.451,4.235
10.196,-11.451,4.549
10.039,-11.294,5.02
10.039,-11.137,5.176
9.725,-11.137,5.333
9.412,-10.98,5.49
8.627,-10.51,5.176
8.471,-10.51,5.02
7.686,-9.882,4.863
6.902,-9.569,3.922
6.588,-9.569,3.922
6.588,-10.51,3.294
6.588,-11.294,3.294
7.373,-13.49,3.765
7.373,-14.588,4.078
8.471,-16.471,5.02
8.941,-17.098,5.333
9.098,-17.255,5.02
8.784,-18.353,4.235
8.627,-18.667,3.765
7.843,-18.98,2.51
7.529,-19.137,1.882
6.588,-19.137,1.098
5.49,-19.294,0.627
5.176,-19.451,0.627
4.078,-19.294,0.471
3.608,-18.98,0.314
2.51,-18.51,0.471
2.196,-18.196,0.471
1.412,-17.882,1.098
1.098,-17.098,1.882
0.941,-16.784,2.039
0.627,-15.843,2.667
0.627,-15.373,2.824
0.314,-14.588,2.98
0.471,-14.118,3.137
0.471,-13.176,2.98
0.471,-12.392,2.824
0.471,-12.078,2.824
0.784,-11.451,2.353
0.941,-10.824,2.51
1.412,-10.039,2.196
1.569,-10.039,2.039
2.353,-9.412,2.039
2.824,-8.941,1.725
3.137,-8.627,1.882
3.608,-8.471,1.412
3.765,-8.314,1.255
3.765,-8,1.098
3.922,-7.843,0.941
3.922,-7.843,0.941
3.765,-7.373,0.784
3.451,-7.373,0.784
2.98,-7.216,0.941
2.51,-7.373,0.784
2.196,-7.059,0.784
1.412,-7.373,0.784
1.882,-7.373,1.098
1.412,-7.373,0.941
1.412,-7.686,0.941
1.255,-7.843,0.941
1.098,-7.843,0.941
0.784,-8.157,0.941
0.627,-8,0.784
0.784,-7.843,0.784
0.627,-7.686,0.627
0.784,-7.529,0.627
1.098,-7.686,0.941
1.098,-7.686,0.941
1.098,-7.843,1.255
1.255,-7.529,1.255
1.569,-7.373,1.098
1.412,-6.902,1.255
1.412,-6.902,1.412
1.569,-7.059,1.725
1.725,-7.216,1.725
2.039,-7.843,1.882
2.353,-8.627,1.882
2.667,-8.941,2.196
3.451,-9.569,2.824
3.608,-9.725,3.294
3.451,-9.569,3.294
3.608,-9.412,3.294
3.451,-9.098,3.294
3.765,-9.098,3.451
3.765,-9.569,3.451
3.922,-9.569,3.294
3.922,-9.882,3.294
3.922,-10.039,3.137
3.765,-10.353,2.824
3.294,-10.824,2.824
2.824,-11.137,2.51
2.824,-11.294,2.51
2.51,-11.608,2.51
2.51,-11.922,2.824
2.353,-12.078,3.137
2.353,-12.078,3.294
2.353,-12.392,3.451
2.196,-12.392,3.608
2.196,-12.235,3.765
1.725,-12.392,3.922
1.882,-12.392,4.078
1.725,-12.392,3.765
1.882,-12.392,3.765
2.039,-12.549,3.922
2.353,-12.706,4.235
2.667,-13.02,4.549
2.824,-13.333,5.333
3.137,-13.49,5.333
3.451,-13.647,5.804
3.451,-13.647,5.961
3.451,-13.647,6.118
3.608,-13.02,5.647
3.608,-12.706,5.647
4.078,-12.078,5.333
4.392,-11.765,5.02
5.02,-10.98,5.02
4.863,-10.824,5.49
5.333,-11.137,5.804
5.176,-11.922,6.275
5.333,-12.235,6.431
5.333,-12.549,6.902
5.647,-12.549,6.745
6.588,-12.078,6.902
7.059,-12.078,6.745
7.843,-11.451,6.588
8.314,-11.294,5.647
8.784,-11.137,5.333
9.412,-11.137,4.863
9.412,-10.98,4.863
9.882,-10.824,4.706
9.882,-10.51,4.706
10.196,-10.353,4.863
10.51,-10.353,4.863
10.824,-10.196,4.863
10.824,-10.353,4.549
10.98,-10.039,4.235
10.353,-9.725,3.922
10.039,-9.569,3.294
9.569,-9.725,2.98
9.098,-10.51,2.51
8.941,-11.294,2.353
8.627,-12.863,2.196
8.941,-13.804,2.824
9.412,-15.843,3.294
9.412,-16.471,4.235
9.725,-16.157,4.706
9.569,-15.373,4.392
9.255,-15.529,3.922
8.314,-16,2.667
8.157,-16.471,2.196
7.373,-17.098,1.569
7.216,-17.255,1.412
5.961,-17.569,1.255
5.176,-17.882,1.255
5.02,-17.725,1.098
4.235,-17.412,1.412
3.922,-17.255,1.255
3.922,-16.784,1.569
3.922,-16.941,1.725
3.922,-16.784,1.882
3.451,-16,2.039
3.294,-15.843,2.196
2.98,-15.529,2.667
2.667,-15.216,2.667
2.196,-14.588,2.667
2.353,-14.431,2.667
1.882,-13.49,2.667
1.882,-12.863,2.51
2.196,-12.549,2.667
1.882,-11.922,2.824
2.039,-11.765,2.353
2.196,-11.137,2.353
2.51,-10.98,2.667
2.667,-10.51,2.353
2.824,-10.196,2.353
2.98,-10.196,2.039
2.667,-9.882,1.882
2.98,-9.725,1.725
3.294,-9.569,1.882
3.137,-9.412,1.882
3.137,-9.098,1.882
2.98,-8.941,2.039
2.667,-8.784,1.882
2.824,-8.784,1.882
2.824,-8.784,1.725
2.51,-8.471,1.569
2.353,-8.627,1.569
2.039,-8.471,1.412
1.882,-8.314,1.098
1.569,-8.314,0.627
1.569,-8.157,0.627
1.725,-8.157,0.627
1.725,-8.157,0.471
1.569,-8.314,0.314
1.569,-8.314,0.157
2.039,-8.471,0
2.039,-8.627,0
2.353,-8.784,0
2.353,-9.098,-0.157
2.51,-9.569,0.314
2.353,-9.882,0
2.039,-9.725,0.314
1.725,-9.882,0.471
1.569,-10.039,0.784
1.098,-10.196,1.569
0.627,-10.51,1.412
0.314,-10.353,0.941
0.314,-9.882,0.471
0.314,-9.412,-0.157
0.784,-8.157,-0.471
0.627,-7.373,-0.471
0.784,-6.431,-0.314
0.784,-6.118,-0.157
0.471,-6.275,0.627
0.314,-6.431,1.569
0.784,-6.588,2.039
1.569,-7.843,3.294
2.039,-8,3.765
3.451,-9.098,5.176
4.235,-9.569,5.647
5.02,-10.196,6.588
4.863,-10.51,6.588
4.392,-10.824,6.275
3.451,-10.824,6.275
3.294,-10.98,6.118
3.451,-11.451,5.647
3.451,-11.765,5.49
3.451,-12.392,5.02
2.98,-13.176,4.549
2.667,-13.647,5.02
2.039,-14.588,5.02
1.412,-15.059,5.176
0.471,-15.529,5.804
0.157,-16,6.118
0,-16.941,6.118
0,-17.255,6.275
-0.157,-17.255,6.745
0,-16.941,7.216
0.314,-16.784,7.686
0.784,-16,8.471
0.941,-15.686,8.784
1.412,-15.373,9.725
1.725,-15.686,9.882
1.725,-15.686,9.882
2.51,-16.157,9.725
3.451,-16.157,9.569
5.647,-15.529,9.725
7.059,-14.902,9.882
9.255,-13.647,9.882
10.353,-11.922,9.412
10.51,-11.451,9.412
10.039,-10.824,8.314
10.039,-10.51,7.686
9.725,-10.51,6.902
9.725,-10.353,6.588
9.725,-10.039,5.961
9.098,-9.882,5.647
8.627,-9.882,5.49
8.627,-10.039,5.176
8.627,-10.039,4.549
9.255,-10.353,4.235
9.569,-10.196,4.078
10.039,-10.196,3.608
10.353,-9.882,3.451
10.51,-9.882,3.137
11.137,-9.725,3.137
10.824,-9.725,3.137
10.51,-9.725,3.294
10.039,-9.725,3.137
9.412,-9.725,3.137
8.471,-9.569,2.667
8.314,-10.039,2.667
7.686,-11.137,2.039
7.529,-11.922,2.039
7.373,-14.588,1.882
7.216,-16,2.039
7.529,-18.039,2.824
7.686,-18.824,3.137
7.529,-18.824,3.451
7.216,-18.196,2.98
7.216,-18.039,2.98
6.745,-17.725,2.039
6.745,-17.725,1.725
6.431,-17.412,1.255
6.275,-17.569,0.784
6.118,-17.725,0.627
5.647,-18.039,0.471
5.49,-17.882,0
5.02,-17.882,0
5.02,-17.569,0
5.02,-17.255,-0.314
4.706,-16.471,-0.157
4.549,-16,0.314
4.235,-15.059,0.784
4.078,-14.745,0.941
3.451,-14.275,1.412
3.137,-13.804,2.51
2.667,-13.176,2.667
2.353,-12.392,2.667
2.353,-12.392,2.824
1.882,-11.451,2.824
1.725,-11.137,2.824
1.255,-10.667,2.667
0.784,-10.196,2.667
1.255,-10.196,2.667
1.412,-10.039,2.51
1.412,-10.039,2.353
1.569,-10.196,2.353
1.412,-9.725,2.039
1.412,-9.725,1.569
1.569,-9.882,1.725
1.725,-10.353,1.725
1.725,-11.137,1.098
1.882,-11.451,0.784
1.725,-11.608,1.098
1.725,-11.922,0.941
1.882,-11.922,1.412
1.882,-11.765,0.941
2.039,-11.608,1.098
1.725,-11.608,1.098
1.725,-11.765,0.941
1.725,-12.078,1.098
1.725,-12.078,1.098
1.255,-12.078,0.784
0.941,-11.922,0.941
0.314,-11.765,0.784
0.627,-10.98,0.627
0.471,-10.667,0.627
0.784,-9.725,0.314
0.471,-9.569,0
0.941,-8.157,0.314
1.098,-7.216,0.471
1.412,-6.745,0
0.941,-5.804,0.627
1.412,-5.804,0.784
1.255,-5.647,1.098
1.098,-5.804,1.412
1.412,-6.118,1.725
1.255,-5.961,1.255
1.725,-6.118,1.882
1.412,-5.804,2.039
1.569,-5.49,2.353
1.098,-4.863,2.353
1.098,-5.02,2.51
0.941,-5.176,3.294
1.412,-5.961,3.765
1.725,-6.588,4.549
2.51,-7.843,5.02
2.98,-8.627,5.176
3.451,-9.725,5.647
3.608,-10.196,5.647
2.98,-10.824,5.647
2.196,-11.765,5.647
2.039,-12.235,5.647
1.255,-13.02,6.118
1.255,-13.176,6.745
1.412,-13.49,6.588
1.098,-13.176,6.118
0.784,-13.176,5.647
0,-13.02,5.333
-0.157,-12.706,5.333
-0.784,-12.706,5.02
-0.941,-12.549,4.863
-1.098,-12.863,4.706
-0.941,-12.706,4.235
-0.941,-12.863,4.235
-0.784,-13.333,4.706
-0.314,-13.49,5.333
0,-13.49,6.275
0.157,-13.804,6.588
0.784,-13.49,7.843
0.941,-13.02,8
2.039,-12.235,8.471
2.824,-11.451,8.941
3.608,-10.667,9.098
4.863,-10.196,9.412
5.49,-9.569,9.569
6.902,-9.255,9.569
7.216,-8.627,9.725
7.529,-8.627,9.882
7.686,-8.314,10.039
7.529,-8.314,9.882
7.216,-8.471,9.098
7.216,-8.314,9.098
7.373,-8.784,8.471
7.216,-9.255,8.471
7.373,-9.882,8.157
7.686,-10.353,8
7.686,-10.51,8.157
8,-10.667,8.157
8.314,-10.667,8
8.627,-10.824,7.843
8.784,-10.98,8
8.941,-11.294,7.843
8.627,-11.765,7.686
8.941,-11.922,7.529
9.725,-11.922,7.059
10.196,-11.765,6.745
11.137,-11.137,6.118
11.765,-10.98,5.804
12.549,-10.51,5.333
12.392,-10.667,4.706
12.392,-11.608,4.863
11.608,-13.49,4.549
10.98,-14.745,4.863
10.353,-16.941,5.176
9.569,-18.824,5.647
8.941,-19.608,5.176
8.314,-19.765,3.922
8.157,-19.765,2.824
7.373,-19.765,1.098
6.902,-19.608,0.471
5.647,-20.235,-0.471
4.235,-20.549,-1.255
3.608,-20.863,-1.569
2.353,-21.333,-1.569
1.569,-21.647,-1.569
0.784,-21.333,-1.255
0.314,-20.549,-1.255
0.314,-19.451,-0.941
0.784,-18.196,-0.627
1.098,-17.569,-0.627
1.725,-16.471,-0.471
1.882,-16,0
1.882,-15.059,0.314
1.882,-14.588,0.627
1.569,-13.49,0.627
1.725,-12.549,0.784
2.039,-12.392,0.627
2.196,-11.137,0.471
2.196,-10.824,0.314
2.667,-10.353,0.157
3.294,-10.196,-0.157
3.608,-9.569,-0.471
4.078,-8.941,-0.941
4.392,-8.627,-1.098
4.706,-8.157,-1.412
4.706,-7.529,-1.412
5.333,-7.373,-1.569
5.49,-7.216,-1.882
5.804,-7.373,-1.882
5.961,-7.686,-1.255
5.804,-8.314,-1.255
5.961,-9.098,-1.098
6.118,-9.569,-1.098
5.804,-10.039,-0.784
5.49,-10.353,-0.784
4.392,-10.824,-0.941
3.137,-10.667,-0.941
2.51,-10.51,-0.941
1.725,-10.196,-0.627
1.569,-10.039,-0.784
1.412,-9.725,-0.784
1.098,-9.569,-0.784
1.098,-8.941,-0.627
1.098,-8.941,-0.627
0.784,-8.471,-0.471
0.941,-8.157,-0.314
1.255,-7.843,-0.314
0.941,-7.843,-0.471
1.412,-7.529,-0.471
1.412,-7.216,-0.314
1.412,-6.588,-0.157
1.569,-6.431,-0.314
1.255,-6.275,-0.314
1.255,-6.118,-0.471
1.098,-6.588,-0.471
1.412,-6.745,-0.471
1.412,-6.902,-0.627
1.882,-6.745,-0.314
2.353,-6.745,0.157
2.824,-6.588,1.098
2.98,-6.588,1.569
3.451,-6.902,3.137
4.078,-7.059,3.922
5.02,-7.843,5.49
5.647,-8.471,6.588
5.804,-8.784,7.216
6.275,-9.569,7.216
5.961,-9.882,7.216
5.176,-10.196,6.431
4.392,-10.196,6.118
2.667,-10.98,5.49
0.784,-11.451,4.706
0.157,-11.765,4.392
-2.039,-12.235,4.706
-2.667,-12.549,4.235
-3.765,-13.176,4.549
-4.078,-13.647,5.02
-4.549,-14.275,4.706
-5.176,-14.745,4.706
-5.02,-15.059,5.02
-4.863,-15.529,4.863
-4.392,-15.686,5.02
-3.608,-16.314,5.333
-2.98,-16.941,5.333
-1.882,-17.412,5.804
-0.157,-17.412,6.275
0.941,-17.569,6.588
2.51,-16.941,7.686
3.451,-16.627,8
5.176,-15.216,8.627
5.49,-12.863,8.471
6.902,-12.392,8.471
8,-10.667,8.471
8.314,-9.882,8
8.784,-8.784,7.843
8.941,-8.627,7.843
8.784,-8,7.373
8.471,-7.843,7.216
8.471,-7.686,7.059
7.843,-7.843,6.588
7.843,-8.157,6.431
7.059,-8.314,5.961
7.216,-8.314,5.804
6.902,-8.627,5.647
7.059,-8.784,5.176
7.059,-8.941,5.176
7.216,-9.255,4.549
7.843,-9.255,4.392
8.314,-9.725,4.392
8.784,-9.882,4.235
9.882,-10.353,4.392
10.51,-10.196,4.706
10.824,-10.353,4.706
10.98,-10.51,5.176
10.824,-10.51,5.176
10.196,-10.824,5.02
9.725,-10.667,5.02
8.627,-10.353,4.549
7.373,-10.667,3.765
6.745,-10.98,3.451
5.961,-12.078,3.294
5.961,-12.706,3.451
5.804,-13.961,3.608
6.118,-14.745,3.608
6.902,-15.843,3.922
8.314,-16.157,3.451
9.255,-16,3.294
10.196,-16.471,2.039
10.353,-17.412,1.255
10.196,-18.039,0.157
10.039,-18.667,-0.314
8.941,-19.294,-0.627
7.059,-19.765,-1.412
6.118,-20.078,-1.412
4.706,-19.765,-1.882
3.765,-19.765,-1.882
2.51,-19.137,-1.725
2.196,-18.824,-1.569
1.725,-18.353,-1.098
1.569,-17.882,-0.471
1.569,-17.255,-0.314
1.725,-16,0.627
1.882,-15.686,0.941
1.882,-14.588,1.725
1.882,-14.275,1.882
1.725,-13.333,2.196
1.882,-12.706,2.196
2.039,-12.549,2.196
2.51,-12.235,2.196
2.824,-11.922,1.725
3.608,-11.451,1.412
3.451,-11.294,1.412
3.922,-11.137,0.941
4.078,-10.824,0.471
4.078,-10.51,0.627
3.922,-10.353,0.157
3.922,-10.51,0.314
3.765,-10.824,0.314
3.608,-10.824,0.157
3.294,-10.824,0.157
3.137,-11.137,0.157
2.824,-10.98,0.314
2.353,-10.98,0.157
2.353,-10.98,0.157
2.353,-11.451,0.314
2.51,-11.608,0.471
2.353,-12.235,0.314
2.51,-12.392,0.471
2.353,-12.549,0.627
2.353,-12.706,0.627
2.51,-12.863,0.627
2.196,-12.549,0.627
2.196,-12.392,0.471
1.882,-11.922,0.157
1.882,-11.137,-0.157
1.569,-10.824,0
1.569,-10.196,-0.314
1.412,-10.039,-0.471
1.412,-9.255,-0.627
1.255,-8.941,-0.627
1.412,-8.314,-0.471
1.412,-7.843,-0.314
1.412,-7.216,-0.157
1.725,-7.216,0.157
1.725,-7.216,0.157
1.725,-7.216,0.627
1.882,-7.059,0.941
2.196,-6.902,1.098
2.196,-6.431,1.725
2.196,-5.961,1.882
2.353,-5.49,2.353
2.039,-5.176,2.824
1.725,-5.333,3.137
1.569,-5.49,3.451
1.882,-5.961,3.451
1.882,-6.275,4.392
1.882,-6.745,4.549
1.882,-7.216,4.706
1.725,-7.373,4.549
1.098,-7.843,4.549
0.314,-8,4.392
0.157,-8,3.765
-0.157,-8.314,3.294
-0.314,-8.314,2.98
-0.627,-8.627,2.667
-0.471,-8.941,2.51
-0.314,-9.412,2.196
-0.314,-10.039,2.196
-0.314,-10.353,2.353
-0.627,-10.98,2.039
-0.471,-11.294,2.196
-0.314,-11.608,1.882
-0.314,-12.235,1.725
-0.157,-12.863,1.882
0.157,-13.647,1.882
0.627,-14.275,2.039
1.569,-15.529,2.824
1.725,-16.314,3.294
2.98,-17.569,4.235
3.451,-18.039,4.863
4.392,-18.51,5.804
5.49,-18.353,6.275
5.961,-17.725,6.431
7.373,-16.157,7.059
8.471,-15.373,7.373
10.824,-13.49,8.157
12.078,-12.863,8.471
13.176,-10.824,7.686
12.392,-9.725,6.745
11.608,-9.569,6.118
9.569,-10.196,5.961
8.627,-10.98,6.275
6.275,-12.549,6.745
5.647,-12.863,6.588
4.235,-13.647,7.059
3.922,-13.647,6.745
3.608,-13.333,6.588
4.392,-13.02,6.588
4.706,-12.706,6.431
6.588,-13.02,5.804
7.373,-12.549,5.961
8.627,-12.235,5.961
10.353,-11.922,5.961
10.824,-11.608,5.961
11.765,-10.667,5.49
11.765,-10.353,5.333
11.765,-9.882,4.863
11.608,-9.725,4.235
11.451,-10.196,4.392
10.98,-11.922,4.549
10.98,-12.863,4.706
10.51,-14.588,4.863
10.51,-15.686,5.333
10.51,-16.471,5.49
10.353,-16.314,5.02
10.353,-16.157,4.235
10.196,-16.784,2.98
9.882,-17.255,2.824
9.255,-18.196,2.039
8.784,-18.667,2.039
7.216,-19.451,1.412
5.961,-19.765,1.412
3.922,-20.078,0.784
1.882,-19.922,0.941
1.098,-19.765,0.941
-0.157,-18.98,0.784
-0.314,-18.51,0.784
-0.471,-17.412,0.941
-0.314,-16.941,0.941
0,-15.843,0.941
0.157,-14.275,1.725
0.627,-13.647,1.725
1.098,-12.706,2.196
1.098,-12.392,2.353
1.412,-11.608,2.196
1.412,-11.294,2.353
1.725,-10.98,2.353
2.039,-10.51,2.039
2.353,-10.196,1.725
2.667,-10.196,1.412
2.98,-9.569,1.255
3.294,-9.255,0.784
3.294,-9.098,0.627
3.608,-8.941,0.314
3.765,-8.627,0.157
3.765,-8.627,0.627
4.078,-8.471,0.314
4.078,-8.314,0.157
4.392,-8.471,0.471
3.922,-8.941,0.314
4.392,-8.784,0.471
4.078,-9.412,0.627
4.078,-9.725,0.784
4.078,-10.353,0.941
4.078,-10.824,0.784
3.922,-11.608,0.627
3.451,-11.765,0.784
3.294,-12.078,0.627
2.824,-12.235,0.471
2.51,-12.392,0.471
2.196,-12.392,0.471
1.882,-12.392,0.314
1.882,-12.549,0.314
1.569,-12.549,0.314
1.412,-12.549,0.157
1.098,-12.078,-0.314
1.098,-11.608,-0.157
0.941,-11.137,-0.471
0.941,-10.353,-0.471
0.784,-9.882,-0.627
0.314,-9.569,-0.471
0.314,-9.255,-0.627
0.471,-8.941,-0.627
0.471,-8.784,-0.784
0.784,-8.314,-0.784
0.941,-7.843,-0.941
1.255,-6.902,-0.784
1.255,-5.804,-0.471
1.412,-5.49,-0.314
1.725,-5.333,-0.157
2.196,-5.804,0
2.196,-6.902,0.314
2.667,-7.843,0.627
3.294,-8.941,0.627
3.922,-9.412,0.941
3.922,-9.725,0.941
3.451,-10.196,1.255
3.294,-10.353,1.255
3.451,-10.353,1.412
3.608,-10.353,1.569
3.922,-10.51,1.882
4.392,-10.824,1.882
4.549,-10.824,2.196
4.549,-10.98,2.51
4.549,-11.294,2.98
4.392,-11.294,3.294
4.078,-10.98,3.451
3.294,-11.137,3.608
2.353,-10.667,4.078
2.039,-10.824,4.078
1.412,-11.137,4.549
1.569,-11.451,5.02
1.412,-12.078,5.49
1.412,-12.235,5.647
0.941,-13.02,6.431
0.157,-13.176,7.216
-0.157,-13.333,7.373
-1.412,-13.961,8.157
-1.882,-14.118,8.157
-2.353,-14.902,8.471
-2.196,-15.059,8.471
-1.569,-15.059,9.098
-0.471,-14.902,9.255
0.314,-15.059,9.255
2.353,-14.588,9.569
3.294,-14.431,10.039
5.333,-14.118,10.353
6.745,-14.275,10.667
8.941,-13.804,10.667
10.824,-13.49,10.196
11.765,-13.176,10.039
12.549,-12.863,9.255
12.706,-12.706,8.471
12.235,-12.706,7.686
11.922,-12.549,7.216
10.51,-12.549,6.588
9.569,-12.549,6.275
8.941,-12.078,6.118
8.471,-11.451,5.647
8.471,-11.294,5.49
8.471,-10.98,4.863
8.471,-10.824,4.549
8.314,-10.667,4.078
8.157,-10.196,4.235
8,-10.353,3.922
8,-9.725,3.608
7.843,-9.882,3.294
7.529,-10.51,3.137
7.686,-11.294,3.294
7.373,-12.549,3.294
7.686,-14.118,4.078
7.686,-14.745,4.549
8,-14.745,5.02
7.843,-14.431,4.549
8.157,-13.49,4.078
8.471,-13.49,3.294
8.471,-14.902,2.353
8.314,-16.784,1.255
8.314,-17.255,1.098
7.686,-17.569,0.471
7.373,-17.412,0.314
6.275,-17.255,0
5.804,-16.784,-0.314
4.863,-16,-0.627
4.549,-15.373,-0.627
4.078,-14.745,-0.627
4.078,-13.961,-0.471
4.235,-13.49,-0.314
3.922,-12.706,0.471
3.765,-12.235,0.784
3.765,-11.922,1.412
3.451,-11.765,1.569
3.137,-11.608,1.412
3.137,-10.98,0.627
3.451,-11.137,0.627
3.451,-10.824,0.471
3.451,-10.98,0.627
3.451,-10.98,1.098
3.451,-11.137,1.412
3.294,-11.294,1.882
3.137,-11.608,2.039
2.98,-11.608,2.039
2.667,-12.235,2.196
2.667,-12.863,2.039
2.039,-12.706,2.039
1.882,-12.706,2.039
1.725,-12.235,1.725
1.255,-11.765,1.569
1.255,-11.137,1.725
1.098,-10.51,1.412
0.784,-10.039,0.941
0.471,-9.725,1.098
0.471,-9.098,0.941
0.314,-8.784,1.098
0.314,-8.471,1.255
0.157,-8.314,1.255
0.157,-8.314,1.255
0.157,-7.843,1.255
0.157,-7.686,1.098
0.157,-7.529,1.255
0.314,-7.373,1.255
0.627,-7.216,1.725
0.784,-7.059,1.725
1.412,-7.216,1.412
1.569,-7.059,1.569
1.882,-6.902,1.882
2.51,-6.588,2.039
2.353,-6.275,2.039
2.353,-5.961,2.353
2.353,-6.118,2.51
2.196,-6.588,2.98
2.353,-7.529,3.451
2.196,-7.843,3.608
2.51,-8.471,3.294
2.667,-8.941,3.294
2.51,-9.098,3.294
2.51,-9.255,3.451
2.353,-9.098,3.451
1.725,-9.098,3.451
1.882,-9.412,3.608
1.882,-9.725,3.294
1.725,-10.039,3.294
1.882,-10.98,3.294
1.882,-11.608,3.294
1.412,-12.392,3.137
0.941,-12.706,2.98
0.941,-12.706,3.294
0.627,-13.02,3.137
0.471,-12.549,3.451
0.314,-12.549,3.451
0.471,-12.392,3.765
0.627,-11.922,3.765
0.784,-11.922,3.608
0.941,-11.922,3.765
0.784,-11.765,3.608
0.784,-11.608,3.765
0.627,-11.765,3.608
0.627,-11.765,3.765
0.471,-11.922,3.608
0.627,-12.235,3.608
1.098,-12.078,3.922
1.412,-12.235,4.078
1.882,-12.078,4.078
2.824,-12.078,3.608
2.667,-11.922,4.078
3.137,-11.608,3.922
4.078,-11.137,3.922
4.392,-10.667,4.078
5.333,-9.882,4.235
5.49,-9.882,4.706
6.431,-9.569,5.647
6.745,-9.255,5.804
7.373,-8.784,6.431
8,-8.941,6.745
8,-9.098,6.902
8.941,-9.882,7.686
8.941,-9.882,7.843
9.725,-10.196,7.843
10.196,-10.353,7.529
10.353,-10.196,6.902
10.667,-10.039,6.745
10.51,-10.039,6.118
10.667,-10.353,6.118
10.667,-10.51,5.804
10.353,-10.98,5.961
10.196,-11.137,5.961
10.196,-11.608,6.118
10.196,-11.294,6.431
10.039,-11.294,6.431
10.039,-10.98,6.745
10.039,-10.98,6.275
9.725,-10.667,5.961
9.412,-10.51,5.804
8.627,-9.882,5.49
8,-9.098,4.706
7.843,-9.412,4.549
7.686,-9.882,4.235
7.843,-10.824,4.078
7.843,-12.706,4.392
8,-13.647,4.392
8.471,-14.118,4.549
8.784,-14.902,4.863
8.471,-15.373,4.863
8.627,-15.373,4.706
8.471,-15.373,4.392
8.784,-15.529,3.765
8.627,-16.314,3.294
8.471,-16.784,2.824
8,-17.098,2.353
7.216,-17.412,2.039
6.431,-17.882,1.569
5.961,-18.039,1.412
4.706,-18.51,1.725
3.608,-18.667,1.255
2.824,-18.824,1.098
2.039,-18.039,0.941
1.569,-17.569,1.255
1.255,-16.784,1.098
0.941,-16,1.412
0.784,-14.745,1.725
0.627,-14.275,2.039
0.627,-13.49,2.353
0.941,-13.02,2.353
1.098,-12.706,2.353
1.255,-12.078,2.51
1.412,-11.765,2.353
1.725,-11.294,2.51
2.039,-10.98,3.137
2.196,-10.824,2.98
2.353,-10.51,3.451
2.196,-10.353,3.294
2.51,-10.039,2.824
2.667,-9.882,2.824
2.51,-9.569,2.51
2.51,-9.098,2.353
2.353,-8.941,2.196
2.039,-8.784,2.039
2.196,-8.784,2.353
2.353,-8.784,2.353
2.353,-9.098,2.196
2.196,-9.098,2.039
1.412,-8.627,1.569
1.098,-8.471,1.412
0.471,-7.843,1.255
0.314,-7.686,0.941
0,-7.373,0.627
0,-7.216,0.784
-0.314,-6.588,0.784
-0.314,-6.431,0.784
-0.471,-6.588,0.941
-0.784,-6.588,1.255
-0.627,-6.588,0.941
-0.941,-6.745,0.941
-0.784,-6.431,1.255
-0.627,-6.902,1.098
-0.471,-7.216,1.255
-0.471,-7.216,1.255
-0.314,-7.529,1.412
-0.471,-7.216,1.882
-0.314,-7.216,1.569
-0.314,-7.059,1.725
-0.157,-7.373,1.725
-0.314,-8,1.569
0,-8.314,1.412
0.314,-8.784,1.725
0.157,-9.098,1.569
1.098,-10.196,1.725
1.412,-10.353,1.882
1.412,-10.667,2.039
1.569,-10.98,2.353
1.725,-11.451,2.51
2.353,-12.392,2.98
2.51,-12.863,3.294
2.824,-13.647,3.922
3.294,-13.961,4.392
3.451,-14.118,4.549
3.451,-14.588,4.863
2.98,-14.588,4.706
2.51,-14.745,4.706
2.196,-14.588,4.549
1.725,-14.745,4.392
1.412,-14.431,4.549
1.098,-14.588,4.235
0.784,-14.745,4.235
0.627,-14.902,4.235
1.255,-14.902,4.235
1.098,-14.902,4.235
1.412,-15.059,4.392
1.569,-14.902,4.549
1.412,-14.902,4.863
1.725,-14.902,5.333
1.882,-14.588,5.333
1.882,-14.275,5.333
2.353,-14.275,5.333
3.608,-14.118,5.176
4.078,-13.647,5.176
5.02,-13.02,4.863
5.647,-12.392,4.863
5.961,-11.922,4.706
6.118,-11.608,5.02
5.961,-11.765,5.333
5.804,-11.608,5.804
5.804,-11.451,5.961
5.961,-11.765,6.118
6.118,-11.922,6.118
6.118,-11.922,5.961
6.745,-12.078,6.275
7.529,-12.078,6.118
8.627,-11.765,6.275
8.784,-11.608,6.118
9.882,-11.137,6.118
10.353,-10.98,5.804
10.51,-10.824,5.647
10.98,-10.51,5.804
10.824,-10.667,6.118
11.137,-10.824,5.804
11.294,-10.51,5.647
11.137,-10.824,5.647
10.98,-10.51,5.647
10.667,-10.51,5.49
10.039,-10.039,5.49
9.882,-9.882,5.333
9.098,-9.255,5.176
8.627,-8.941,5.02
7.843,-9.098,4.863
7.686,-9.725,4.706
7.216,-10.353,4.706
7.373,-11.608,4.863
7.529,-12.392,5.02
8.157,-14.118,5.647
8.471,-14.745,5.961
8.941,-15.529,5.961
8.941,-15.843,5.961
8.784,-16,6.275
8.157,-16.784,5.804
7.843,-17.255,5.333
7.373,-17.882,4.706
6.745,-18.51,4.549
5.647,-18.824,3.294
4.549,-19.137,2.824
4.078,-18.98,2.196
3.137,-19.137,1.569
2.353,-18.98,1.255
1.725,-18.51,1.255
1.569,-18.039,0.941
0.941,-17.255,1.255
0.627,-16.627,1.412
0.784,-16,1.725
0.471,-15.059,1.725
0.471,-14.588,1.882
0.471,-13.804,2.353
0.627,-12.863,2.51
0.784,-13.02,2.824
0.941,-12.078,2.824
1.098,-12.078,3.294
1.412,-11.451,3.294
1.569,-11.294,3.294
2.039,-10.824,3.294
2.353,-10.51,2.98
2.51,-10.353,2.98
2.824,-9.882,2.667
2.824,-9.725,2.353
2.824,-9.255,1.725
2.667,-8.941,1.412
2.667,-9.098,0.941
2.353,-8.627,0.941
2.353,-8.627,0.784
2.196,-8.471,0.784
1.882,-8.471,0.471
1.725,-8.627,0.784
1.412,-8.471,0.784
1.412,-9.098,0.784
0.941,-9.098,1.098
1.098,-9.412,1.255
0.784,-9.569,1.098
0.784,-9.569,1.255
0.627,-9.569,1.098
0.627,-9.412,1.412
0.471,-9.569,1.098
0.471,-10.039,1.412
0.471,-10.196,1.098
0.627,-10.51,1.098
0.314,-10.824,1.255
0.471,-10.51,1.412
0.314,-10.51,1.098
0.314,-10.51,1.412
0.157,-9.882,1.412
0.471,-10.039,1.569
0,-9.412,1.725
0.157,-9.725,1.725
-0.157,-10.039,1.569
0,-10.039,1.882
0,-10.196,1.569
0,-9.882,1.725
0.314,-9.882,1.725
0.157,-9.569,1.412
0,-9.098,1.569
0.157,-8.627,1.412
0.157,-9.098,1.569
0.471,-9.412,1.882
0.941,-9.882,1.882
1.412,-10.039,2.353
2.196,-10.51,2.824
2.51,-10.98,3.137
3.137,-11.137,3.451
2.98,-11.137,3.765
3.294,-11.765,4.392
4.078,-12.078,5.02
4.235,-12.235,5.176
4.706,-12.078,5.333
4.863,-12.078,5.176
5.02,-11.922,5.02
4.863,-11.608,5.333
4.392,-11.137,5.02
3.922,-10.667,4.863
3.608,-10.51,4.706
3.137,-10.51,4.549
2.824,-10.51,4.549
2.51,-10.353,4.549
2.353,-10.353,4.549
2.039,-10.51,4.706
1.725,-10.98,5.176
1.882,-11.137,5.176
1.412,-11.608,5.49
1.255,-11.608,5.49
1.882,-11.765,5.176
2.353,-11.608,4.863
3.451,-11.137,4.706
4.863,-10.824,4.706
5.49,-10.51,4.549
6.431,-10.353,5.02
7.059,-10.51,5.333
7.529,-10.98,6.745
8,-11.294,7.529
8,-11.922,8.157
8.314,-11.451,9.098
8.471,-10.98,8.784
8.941,-10.667,8.314
9.098,-10.51,8.157
9.569,-10.51,7.843
9.882,-10.824,7.529
10.196,-10.98,7.529
10.353,-11.451,7.843
10.353,-11.765,7.686
10.824,-11.608,7.686
11.137,-11.608,7.529
11.608,-11.451,7.843
11.608,-11.294,7.686
11.451,-10.98,7.686
10.98,-10.667,7.686
10.98,-10.353,7.373
10.196,-10.196,7.529
10.039,-10.353,6.745
9.725,-11.922,6.745
9.569,-12.549,6.902
9.725,-13.176,6.745
9.725,-13.49,6.588
9.725,-13.961,6.745
10.039,-13.804,6.745
9.882,-13.961,6.431
9.725,-14.431,5.961
9.412,-14.902,5.647
9.255,-15.529,5.333
8.784,-16.627,4.863
8.314,-16.941,4.706
7.373,-17.255,3.922
6.588,-17.569,3.765
5.49,-18.039,2.824
5.02,-17.882,2.824
4.078,-18.196,2.196
3.294,-17.882,1.882
2.824,-18.039,1.725
2.196,-17.882,1.725
1.882,-18.039,2.039
1.412,-17.882,2.039
1.255,-17.725,2.353
0.941,-16.784,2.353
0.784,-15.686,2.667
0.941,-14.902,2.353
1.255,-13.804,2.824
1.098,-13.647,2.667
1.098,-12.706,2.98
1.255,-12.235,2.667
1.725,-11.922,2.353
1.725,-11.294,2.51
2.039,-11.137,2.196
2.039,-10.824,2.039
2.196,-10.824,1.882
2.51,-10.353,1.569
2.667,-10.353,1.412
2.98,-10.196,1.412
3.137,-10.039,1.412
3.294,-10.196,1.255
3.294,-10.196,1.098
3.294,-10.353,1.255
3.137,-10.196,1.412
3.294,-10.196,1.569
2.667,-10.196,1.412
2.667,-10.196,1.098
2.196,-9.882,1.412
2.353,-10.039,1.098
2.039,-10.196,0.784
1.412,-10.353,0.784
1.255,-10.51,0.627
0.941,-10.98,0.941
0.471,-11.294,0.941
0.314,-11.608,0.784
-0.157,-11.765,0.784
-0.314,-11.608,0.627
-0.941,-11.451,0.471
-1.255,-11.137,0.157
-2.039,-10.51,-0.627
-2.667,-10.353,-1.255
-3.294,-10.196,-2.039
-3.608,-9.569,-2.196
-3.451,-9.725,-2.51
-3.137,-10.039,-2.353
-2.51,-9.882,-2.51
-1.255,-10.667,-2.039
-0.314,-10.98,-1.412
-0.157,-10.667,-0.784
0.471,-10.51,-0.471
0.941,-10.667,0.314
0.941,-10.667,0.627
1.098,-10.51,1.098
1.569,-10.824,1.569
2.353,-10.98,2.196
2.98,-10.98,2.196
3.922,-11.137,2.667
4.078,-10.98,2.667
4.549,-11.294,2.824
4.235,-11.137,3.137
4.078,-11.608,3.294
3.922,-11.765,3.608
3.922,-12.235,3.765
4.235,-12.706,3.922
4.235,-13.02,4.078
4.549,-13.49,4.235
4.392,-13.961,4.863
4.078,-14.588,4.549
3.608,-15.059,4.706
3.451,-15.216,4.549
2.98,-15.373,5.176
2.667,-15.373,4.863
2.51,-15.059,4.549
2.51,-14.588,4.706
2.353,-14.588,4.706
2.667,-14.275,4.392
2.353,-14.275,4.549
2.196,-13.961,5.333
2.039,-13.961,5.647
2.667,-13.961,6.118
3.451,-13.961,6.275
3.608,-14.588,6.118
4.863,-15.216,6.275
5.804,-15.373,6.275
7.686,-15.373,6.902
8.784,-15.059,7.843
10.353,-14.118,8.627
11.608,-12.863,9.098
12.078,-12.235,9.098
11.451,-11.608,8.627
11.137,-11.294,8.627
10.51,-11.294,8.157
10.353,-11.137,8
9.882,-10.98,8
9.255,-10.667,8.157
8.941,-10.51,7.843
8.627,-10.196,8
8.471,-10.039,7.686
8.471,-9.882,7.686
8.471,-9.725,7.216
8.784,-9.725,6.902
9.725,-9.882,6.431
9.569,-9.882,6.275
9.882,-9.412,5.647
9.882,-9.255,5.49
9.569,-8.941,4.863
9.569,-8.627,4.706
9.412,-9.569,4.549
9.569,-10.667,4.706
9.725,-11.922,4.863
9.569,-13.961,5.333
9.725,-14.902,5.333
10.039,-16,5.49
10.039,-16.471,5.49
10.039,-17.255,4.392
9.882,-18.196,3.294
9.255,-19.137,3.294
8.784,-20.392,2.353
8.157,-20.706,2.196
6.902,-21.49,2.039
6.431,-21.647,1.412
4.706,-21.804,1.412
3.137,-21.647,1.098
2.824,-21.49,1.412
1.569,-21.02,1.098
1.098,-20.549,0.941
0.471,-19.922,0.784
0.314,-19.294,0.941
0.157,-17.882,1.255
0.471,-16.471,1.569
0.471,-15.843,1.725
1.098,-14.745,2.51
1.412,-14.275,2.667
1.569,-13.49,2.667
2.039,-13.49,2.667
2.353,-12.863,2.824
2.98,-12.392,2.353
3.137,-11.765,2.51
3.451,-11.294,2.039
3.294,-11.451,2.196
3.294,-10.667,1.882
3.137,-10.667,1.569
2.824,-10.51,1.569
2.824,-10.667,1.412
2.824,-10.51,1.255
2.667,-10.51,1.255
2.353,-10.51,1.255
2.353,-10.353,1.098
2.196,-10.353,1.255
1.725,-10.196,1.098
1.569,-10.196,0.627
1.098,-10.039,0.471
0.941,-10.196,0.471
0.941,-10.353,0.627
0.627,-10.667,0.784
0.314,-10.51,0.627
0,-10.824,0.627
0,-10.98,0.627
-0.157,-10.98,0.627
-0.314,-11.451,0.471
-0.471,-11.137,0.627
-0.314,-11.137,0.314
-0.471,-10.824,0.471
-0.314,-10.353,0.314
-0.471,-9.725,0.157
-0.471,-9.412,0.157
-0.157,-8.784,0.314
-0.157,-8.471,0.471
0.314,-7.843,0.627
0.627,-7.686,0.784
1.412,-7.686,1.098
2.196,-7.529,1.412
2.51,-7.529,1.725
2.667,-7.216,1.882
2.824,-6.902,2.039
2.98,-6.588,2.667
2.98,-6.588,2.824
3.137,-5.804,2.98
3.294,-5.647,3.294
3.451,-5.804,3.294
3.451,-5.804,3.294
2.98,-6.118,3.294
3.137,-7.059,3.451
3.294,-7.686,3.608
3.294,-9.255,4.078
2.824,-10.51,4.078
2.667,-10.824,4.235
2.824,-11.922,4.549
2.98,-12.235,4.392
3.451,-12.706,4.863
3.451,-12.706,4.863
3.294,-12.706,4.863
3.294,-12.392,4.863
3.294,-12.235,4.863
3.137,-11.765,4.549
2.98,-11.608,4.392
2.353,-11.137,4.235
2.51,-11.137,4.235
1.882,-10.824,4.235
1.882,-11.137,4.392
2.039,-11.451,4.392
2.353,-11.608,4.392
2.353,-11.608,4.392
2.51,-12.235,4.549
2.196,-12.078,4.706
2.353,-12.706,5.49
2.51,-12.706,6.275
2.51,-12.863,6.588
2.98,-13.176,7.059
3.294,-13.333,7.059
4.392,-13.961,7.686
4.863,-14.275,7.216
5.961,-13.961,6.745
7.529,-12.863,6.431
8.627,-11.765,6.275
10.196,-10.196,5.961
10.824,-9.725,5.961
11.137,-8.627,6.902
11.137,-8.627,7.059
11.294,-9.412,8.157
10.824,-10.039,8.941
10.667,-10.353,9.255
10.51,-10.353,9.569
10.196,-10.51,9.098
10.51,-10.039,8.627
10.51,-9.882,8.471
10.824,-10.039,8.157
11.137,-10.51,8
11.137,-10.667,8
11.137,-10.824,7.843
11.137,-11.137,7.373
10.51,-11.137,7.059
10.196,-11.294,6.902
9.882,-10.98,6.118
9.412,-10.824,5.49
9.098,-11.137,5.176
9.098,-11.608,4.863
8.941,-12.392,4.863
8.941,-13.961,4.863
9.098,-14.902,5.333
9.098,-16.314,6.118
8.784,-17.098,6.431
8.784,-17.412,6.118
8.471,-17.882,5.333
8.471,-18.51,4.549
8,-19.922,3.922
7.843,-19.922,3.451
7.059,-20.078,2.824
5.961,-20.235,2.353
5.49,-20.078,2.196
4.235,-19.608,2.039
3.608,-19.451,1.725
2.353,-18.196,1.725
2.196,-17.725,1.725
1.569,-16.471,1.412
1.412,-15.529,1.882
1.255,-14.902,1.882
1.569,-14.275,1.725
1.412,-13.804,1.882
1.569,-13.176,1.882
1.725,-12.078,1.882
1.882,-12.235,1.725
2.196,-11.608,1.725
2.353,-11.294,1.725
2.51,-10.51,1.725
2.824,-10.353,1.725
2.824,-9.882,1.412
2.98,-9.725,1.412
2.98,-9.412,0.941
2.824,-8.784,1.098
2.824,-8.627,0.784
2.667,-8.314,0.627
2.667,-7.843,0.784
2.353,-7.686,0.627
2.196,-7.529,0.784
2.039,-7.216,0.627
1.412,-6.902,0.627
1.412,-7.059,0.627
1.255,-6.588,0.314
0.941,-6.431,0.471
1.098,-6.588,0.471
1.098,-6.431,0.471
1.098,-6.431,0.627
0.941,-6.431,0.784
1.098,-6.588,0.784
1.569,-6.745,1.098
1.412,-7.059,1.569
1.412,-7.373,1.725
1.725,-8,2.039
1.725,-8.314,2.039
1.569,-8.941,2.196
1.412,-9.098,2.51
1.255,-9.412,2.667
1.255,-9.255,2.51
0.941,-9.098,2.51
0.627,-9.098,1.882
0.627,-8.471,2.039
0.471,-8.157,1.569
0.471,-7.843,1.725
0.784,-7.529,1.412
0.471,-7.216,1.255
0.627,-7.059,1.412
0.784,-7.843,1.412
0.941,-7.843,1.725
1.098,-8.627,1.882
1.255,-8.784,1.882
1.569,-8.784,2.039
1.569,-8.941,2.039
1.725,-9.255,2.039
1.725,-9.725,2.353
1.725,-10.039,2.51
2.667,-10.51,3.137
2.98,-10.98,3.608
3.922,-11.765,4.235
4.392,-12.078,4.392
4.706,-12.549,4.863
4.392,-12.706,4.863
4.235,-12.863,5.176
4.078,-12.706,5.176
4.078,-12.863,5.02
3.922,-12.549,5.176
3.922,-12.392,5.02
3.765,-12.078,4.863
3.137,-12.235,4.549
2.824,-12.235,4.549
2.196,-11.765,4.235
2.353,-11.765,3.922
2.039,-11.451,4.235
1.725,-11.451,4.392
1.725,-11.608,4.549
2.196,-11.608,5.02
2.039,-11.608,5.02
2.196,-11.765,5.176
1.882,-11.765,5.333
1.882,-11.922,5.176
2.039,-11.765,5.02
1.569,-11.451,5.02
1.725,-11.294,4.392
1.882,-11.294,4.392
2.196,-11.137,3.765
2.667,-11.137,3.294
4.078,-10.51,2.98
4.863,-10.039,3.137
7.059,-9.569,4.235
9.255,-9.255,5.647
10.039,-9.098,6.902
11.294,-8.941,8.627
12.235,-9.098,9.412
12.706,-8.784,10.353
13.176,-8.471,10.667
13.333,-8.941,10.51
13.176,-8.941,9.882
13.49,-8.941,9.569
13.49,-8.784,8.941
13.333,-9.098,8.471
13.02,-9.098,8.314
12.392,-8.941,8
11.765,-9.255,7.843
10.98,-9.725,7.529
10.353,-9.882,7.216
9.882,-10.51,6.902
9.255,-10.51,6.588
8.784,-10.667,6.118
8.471,-10.98,6.118
7.686,-10.667,5.49
7.373,-10.353,4.706
7.373,-10.353,4.235
7.216,-11.137,4.078
7.686,-11.765,3.922
8.314,-12.863,3.608
8.627,-12.863,3.765
9.255,-14.431,3.922
9.882,-15.686,4.235
10.196,-16.314,4.078
10.196,-17.725,4.235
9.882,-18.353,3.922
9.255,-19.765,3.294
8.941,-20.235,2.98
8.157,-20.706,2.196
6.745,-20.706,1.725
6.118,-20.392,1.412
4.863,-20.078,1.569
4.392,-19.451,1.255
3.608,-18.353,1.569
3.137,-18.039,1.725
2.667,-16.941,2.196
2.039,-16.314,2.824
1.882,-15.843,2.824
1.725,-14.902,2.824
2.039,-14.431,2.98
2.196,-13.49,2.824
2.824,-13.02,2.667
3.137,-12.235,2.196
3.294,-11.608,2.353
3.451,-11.451,2.039
3.608,-10.98,1.882
3.451,-10.667,1.882
3.451,-10.353,2.039
3.451,-10.353,2.196
3.294,-10.196,2.196
2.98,-10.196,2.353
2.824,-10.039,2.039
2.353,-9.569,2.039
2.196,-9.412,1.882
2.039,-9.098,1.882
1.882,-8.941,1.882
1.569,-8.784,1.725
1.412,-8.627,2.039
1.255,-8.627,1.882
0.941,-8.471,1.725
0.941,-8.471,1.882
0.627,-8.627,1.725
0.941,-8.627,1.882
0.471,-8.941,1.569
0.314,-8.784,1.725
0.314,-8.784,1.412
0.157,-8.941,1.412
0,-9.098,1.569
0,-9.255,1.255
-0.157,-9.255,1.255
0,-9.569,0.941
0,-9.725,1.098
-0.314,-9.569,0.941
-0.314,-10.039,0.941
-0.784,-9.882,0.627
-1.098,-9.569,0.471
-1.255,-9.255,0.471
-1.569,-8.471,0.157
-1.255,-7.686,0.314
-1.255,-7.843,0.314
-1.098,-7.686,0.471
-0.784,-7.373,0.471
0,-8.471,0.471
-0.157,-8.941,1.098
0.314,-9.725,0.941
1.569,-10.196,1.412
2.353,-10.51,1.412
2.51,-11.137,1.725
2.51,-11.608,1.882
2.353,-12.078,2.353
2.51,-12.235,2.667
3.294,-13.02,2.98
3.922,-13.333,3.451
4.706,-13.333,3.451
4.706,-13.804,3.765
4.863,-13.961,4.078
4.863,-13.804,4.235
4.706,-13.647,4.706
4.549,-13.647,4.549
4.392,-13.49,4.392
4.078,-13.647,4.706
3.922,-13.647,4.235
3.922,-13.647,4.392
3.294,-13.647,4.235
2.667,-13.49,4.235
2.196,-13.49,4.235
1.882,-13.333,3.922
1.882,-13.333,3.922
2.039,-13.176,3.451
1.882,-13.49,3.294
2.196,-13.333,3.294
2.51,-13.804,3.451
2.667,-14.118,3.451
3.294,-14.431,3.922
3.765,-14.745,4.078
4.549,-14.745,4.706
5.176,-14.745,5.333
6.118,-14.275,5.49
7.216,-13.176,5.804
8,-12.706,5.961
8.941,-11.451,5.961
9.098,-11.137,5.804
9.569,-10.353,5.647
10.039,-10.196,5.49
9.882,-10.039,5.333
10.196,-10.353,5.647
10.039,-10.353,5.961
9.725,-10.196,6.745
9.569,-10.039,6.902
9.255,-9.725,7.059
8.941,-9.569,6.902
8.941,-9.569,7.059
9.098,-9.882,7.686
9.098,-10.039,7.686
9.098,-10.51,8.314
8.784,-10.98,8.627
8.471,-11.137,9.098
8.314,-11.294,8.941
8.157,-11.765,8.941
8.784,-11.451,8.627
9.255,-11.451,8.157
9.569,-10.98,7.686
9.569,-10.824,7.373
9.098,-10.667,6.902
8.784,-10.667,6.588
8.157,-11.137,6.118
7.686,-12.392,5.961
7.373,-13.02,5.961
7.216,-14.745,6.118
7.216,-15.529,6.118
7.059,-17.098,6.431
6.902,-17.098,6.431
7.216,-17.412,5.176
7.216,-18.196,3.765
7.059,-18.98,3.137
6.902,-19.922,1.882
6.902,-20.706,1.882
6.588,-22.275,1.725
6.118,-23.059,1.569
4.706,-23.529,1.882
3.608,-22.902,1.569
2.667,-22.588,1.255
2.039,-21.49,1.098
1.412,-21.02,0.941
1.255,-20.392,1.255
1.412,-20.078,1.255
1.412,-19.137,1.098
1.098,-17.412,1.412
1.098,-16.784,1.569
0.941,-14.902,1.725
0.784,-14.275,1.882
1.098,-13.02,1.882
1.098,-12.549,1.882
1.255,-11.765,2.039
1.725,-10.98,1.569
1.725,-10.51,1.569
2.196,-9.882,1.412
2.196,-9.569,1.255
2.353,-9.255,0.941
2.353,-9.255,0.941
2.353,-8.941,0.784
2.353,-8.784,0.784
2.196,-8.627,0.627
2.667,-8.471,0.627
2.51,-7.843,0.627
2.353,-7.843,0.471
2.353,-7.529,0.627
2.196,-7.373,0.471
2.039,-7.216,0.471
1.882,-7.216,0.471
2.196,-7.686,0.471
2.039,-7.843,0.471
1.882,-8,0.314
1.725,-7.686,0.314
1.569,-8.157,0.314
1.098,-8.314,0.157
1.098,-8,0.157
1.255,-8.471,0.157
0.941,-8.941,0.157
0.941,-9.255,0.314
0.941,-9.412,0.157
0.471,-9.882,0.314
0.314,-9.882,0.314
0.314,-9.882,0.471
0.314,-9.569,0.314
0.157,-9.255,0.157
0.157,-8.627,0.157
0.471,-8.157,0.157
0.627,-7.529,0.157
0.784,-7.216,0.314
0.784,-6.745,0.471
1.255,-7.216,0.471
1.255,-7.529,0.471
2.039,-8.471,0.471
2.196,-8.627,0.471
3.137,-9.412,0.314
3.765,-10.196,0.784
3.765,-10.667,0.627
4.078,-11.765,1.098
4.078,-12.235,1.569
4.706,-13.49,2.51
5.49,-13.804,2.824
6.588,-14.588,3.922
8,-14.902,4.863
8.157,-15.216,5.02
8.157,-15.216,5.804
8.157,-15.059,5.804
7.686,-14.588,5.804
7.216,-14.275,5.961
6.118,-13.647,5.49
5.02,-12.863,5.49
4.549,-12.706,5.49
3.137,-12.549,4.863
2.51,-12.549,4.863
1.255,-12.549,4.235
0.784,-12.549,4.392
-0.157,-12.549,4.235
-0.784,-12.549,4.078
-1.412,-12.706,4.235
-1.098,-13.333,4.392
-0.784,-13.49,4.549
-0.314,-14.275,4.392
-0.157,-14.275,4.549
0.471,-14.275,4.549
1.098,-13.804,4.235
1.255,-13.647,4.549
2.824,-13.647,4.706
3.137,-13.176,4.392
4.706,-12.863,4.706
5.176,-12.549,4.863
6.588,-11.608,4.863
7.843,-10.667,5.176
8.314,-10.196,5.02
9.725,-9.725,5.647
10.196,-9.569,5.804
10.98,-9.725,5.804
11.451,-10.196,6.588
12.235,-10.196,6.431
12.863,-10.51,6.431
12.706,-10.824,6.431
12.392,-10.353,6.431
12.392,-10.667,6.431
12.392,-10.51,7.059
11.765,-10.824,7.373
10.98,-10.98,7.843
10.039,-11.294,7.686
9.412,-11.451,7.686
7.843,-11.294,7.686
7.216,-11.137,7.686
6.275,-10.667,7.686
5.176,-10.51,7.216
4.863,-10.667,6.902
4.235,-10.51,6.431
4.235,-10.039,6.118
4.392,-9.725,5.647
4.392,-9.569,5.49
4.549,-9.412,5.176
5.176,-9.725,4.235
5.49,-9.725,3.922
7.059,-10.51,4.078
7.686,-11.922,4.235
9.255,-14.588,5.176
10.196,-16,5.647
11.137,-19.294,6.275
11.294,-21.49,4.863
10.667,-22.118,3.922
9.569,-22.745,0.941
8.627,-22.588,0
6.745,-21.804,-1.725
6.118,-21.333,-2.353
5.176,-21.02,-2.667
4.392,-21.176,-2.51
3.608,-21.804,-1.725
2.196,-22.902,-0.627
0.941,-23.529,-0.314
-0.471,-22.902,0.471
-1.725,-22.275,0.784
-2.824,-20.235,0.941
-1.882,-17.569,0.784
-1.098,-16.314,0.941
1.098,-14.588,0.784
2.039,-13.804,0.627
3.922,-12.863,0.471
4.863,-11.608,0.314
5.961,-11.451,0.471
6.275,-11.294,0.941
6.431,-11.922,1.098
5.961,-12.392,1.098
5.176,-12.549,1.255
3.451,-12.549,0.627
3.137,-12.235,0.471
2.824,-11.451,0.314
2.667,-10.353,0.314
2.51,-10.039,0.471
2.353,-9.569,0.471
2.353,-9.098,0.157
1.882,-8.157,0
1.569,-7.686,-0.157
0.941,-6.902,0
0.471,-6.431,0
0.314,-5.961,0
-0.314,-5.333,0
-0.471,-4.706,-0.314
-1.098,-4.549,-0.314
-1.098,-4.078,-0.157
-1.569,-3.922,-0.157
-1.725,-3.608,0.157
-1.725,-3.608,0.314
-1.412,-3.608,0.784
-0.941,-3.608,0.784
0.314,-3.294,0.627
0.784,-3.451,0.784
2.196,-3.765,0.627
2.51,-4.392,0.627
2.824,-4.863,0.471
3.608,-6.118,-0.157
3.765,-6.275,-0.157
4.078,-7.059,-0.471
3.765,-7.529,-0.314
3.765,-8.157,0.471
3.608,-9.098,0.627
3.451,-9.882,0.941
3.137,-10.51,1.255
2.98,-10.667,1.255
2.824,-11.137,1.725
2.667,-11.765,1.882
2.667,-12.235,1.882
2.039,-12.706,2.039
1.725,-12.863,2.039
2.039,-13.804,2.039
2.196,-14.118,1.725
2.98,-15.059,2.196
3.608,-15.373,1.882
4.078,-16.471,2.039
4.863,-17.255,2.039
4.863,-17.255,2.353
5.176,-17.725,2.51
5.176,-17.725,2.824
5.02,-17.412,2.98
5.02,-17.255,2.824
5.176,-16.471,2.98
4.863,-16.157,3.137
5.02,-15.373,2.98
4.392,-14.745,2.51
4.078,-14.275,2.667
3.294,-13.961,2.667
3.137,-14.118,2.667
2.824,-13.804,2.824
2.824,-14.275,2.98
3.137,-14.118,3.137
3.608,-14.275,3.608
3.608,-14.275,3.922
4.078,-14.431,3.922
4.549,-14.118,3.608
5.333,-13.49,3.608
6.118,-12.863,3.608
6.275,-12.235,4.078
6.902,-11.608,4.549
7.216,-11.137,5.02
7.529,-10.51,5.49
7.529,-10.353,5.647
7.529,-9.725,5.02
7.059,-9.098,4.549
6.902,-9.255,4.235
7.216,-9.098,4.078
7.216,-9.098,4.078
8,-9.255,4.078
8.157,-8.941,3.922
8.471,-8.941,4.078
8.157,-8.627,3.608
8.157,-8.627,3.451
8,-8.627,2.98
8.157,-8.471,2.667
8.314,-8.627,2.196
8.941,-8.627,1.569
9.725,-8.784,1.412
10.353,-8.784,1.255
10.824,-8.784,1.098
11.137,-9.098,0.941
10.98,-9.412,0.941
10.824,-9.412,0.941
10.353,-9.725,0.941
10.039,-8.941,0.784
9.412,-8,1.098
8.941,-7.686,1.098
9.098,-8.314,1.255
9.098,-8.941,1.569
9.255,-10.667,2.196
9.412,-12.863,3.137
10.039,-13.647,2.824
10.667,-15.216,3.137
10.98,-15.529,2.98
11.137,-15.843,2.039
10.98,-16.314,2.196
10.51,-17.098,1.725
9.725,-17.255,1.098
9.725,-17.255,0.784
8.941,-17.412,0.941
8.627,-17.412,0.627
7.529,-18.196,1.255
6.902,-18.353,1.255
5.333,-18.667,1.255
3.765,-18.98,1.882
3.294,-19.294,1.882
2.353,-18.667,2.353
2.196,-18.51,2.51
1.725,-17.725,2.824
1.569,-17.255,2.667
1.569,-15.843,2.667
1.882,-14.902,2.98
2.196,-14.431,2.98
2.51,-13.804,2.98
2.51,-13.647,3.137
2.824,-13.02,3.608
2.824,-13.02,3.608
2.824,-12.392,3.608
2.667,-12.235,3.765
2.667,-11.922,3.608
2.824,-11.294,3.137
2.824,-10.98,2.98
3.137,-10.824,2.824
2.98,-10.667,2.51
2.824,-10.353,2.196
2.353,-10.039,2.51
2.51,-10.196,2.353
2.353,-10.039,2.667
2.353,-10.196,2.824
2.039,-10.353,2.98
1.569,-10.51,2.98
0.941,-10.51,2.667
1.098,-10.353,2.196
0.627,-10.039,2.196
0.471,-9.725,1.882
0.471,-9.569,1.569
0.157,-8.941,1.255
0.157,-8.471,0.941
0.314,-8.157,0.627
0.314,-7.686,0.471
0,-7.843,0.314
0.157,-7.843,0.314
0,-7.686,0.157
0,-7.686,-0.157
-0.157,-7.373,0
0,-7.216,0
0,-6.745,-0.314
0,-6.745,-0.314
0.157,-6.275,0
0.157,-6.275,0
0.314,-5.961,0.314
0.314,-6.118,0.627
0.471,-6.902,0.471
0.627,-7.686,0.314
1.255,-8,0.157
2.353,-8.471,0.157
2.98,-8.784,0.314
3.765,-9.569,0.627
3.608,-9.569,0.784
4.392,-10.039,1.098
4.863,-10.353,2.51
5.49,-11.137,3.451
6.275,-12.549,4.392
6.588,-13.02,4.863
6.431,-13.804,5.176
6.118,-14.118,4.706
5.02,-13.961,4.235
4.078,-13.804,3.137
3.608,-13.49,2.667
3.294,-13.333,2.196
3.294,-13.49,2.196
3.137,-13.49,2.039
2.98,-13.49,2.353
2.98,-13.333,2.824
2.51,-13.647,3.294
1.882,-13.647,3.451
1.569,-13.647,3.765
1.412,-13.804,3.922
1.412,-13.804,4.235
1.569,-14.118,4.392
2.196,-14.588,4.549
3.294,-14.275,4.549
3.922,-13.961,4.549
4.235,-13.49,5.02
4.863,-13.176,5.49
5.02,-12.706,5.333
4.863,-12.706,5.49
5.176,-12.392,4.706
5.647,-12.078,3.765
5.961,-11.765,3.608
6.588,-11.451,2.98
6.902,-11.451,3.451
8,-11.451,3.922
8.471,-11.294,4.078
9.412,-11.137,4.549
9.882,-11.137,4.863
10.039,-10.98,4.863
9.098,-10.824,4.549
8.941,-10.824,4.235
8,-10.824,4.078
7.686,-11.137,4.392
7.373,-11.137,4.235
7.686,-11.294,4.392
7.373,-11.451,4.549
8.157,-11.294,4.392
8.471,-11.608,4.392
9.255,-11.608,4.078
9.569,-11.451,4.078
10.51,-11.137,4.078
11.294,-10.667,4.078
11.608,-10.51,4.078
11.922,-10.039,3.608
11.608,-9.725,3.765
11.137,-9.098,3.451
11.137,-9.255,3.137
10.667,-9.569,2.51
10.353,-10.824,2.039
10.353,-11.922,2.196
10.196,-14.431,2.98
10.196,-15.373,3.294
10.196,-15.843,3.922
10.039,-16,3.922
9.725,-15.373,3.608
8.627,-15.216,2.353
8.471,-15.216,1.882
7.843,-15.686,0.941
7.529,-15.843,0.784
6.118,-17.255,0.941
4.863,-18.51,1.412
4.078,-18.98,1.255
3.294,-19.608,0.784
2.98,-19.294,0.941
2.51,-19.137,0.627
2.353,-19.137,0.471
2.353,-18.824,0.627
2.353,-18.667,0.941
2.667,-18.353,0.627
2.824,-17.882,1.569
2.824,-17.255,1.725
2.51,-16.784,2.196
2.196,-16,2.039
1.882,-15.059,2.51
1.725,-14.118,2.51
2.039,-13.647,2.039
2.196,-12.706,1.725
2.51,-12.392,1.725
2.667,-11.922,1.569
2.824,-11.608,1.412
2.667,-10.353,1.255
2.196,-10.196,1.412
2.353,-10.196,1.725
2.039,-9.882,1.725
2.039,-9.882,2.039
2.039,-9.725,2.039
2.196,-9.725,1.882
1.882,-9.255,2.039
2.039,-8.784,1.882
2.039,-8.471,1.882
2.196,-8,2.039
2.196,-7.843,2.039
2.039,-8,2.196
1.725,-8,2.196
1.569,-8.157,2.667
1.098,-8.157,2.824
1.098,-8,2.98
0.471,-8,2.98
0.314,-7.843,2.98
-0.157,-7.686,2.824
-0.314,-7.059,2.824
-0.471,-6.745,1.882
-0.941,-6.431,1.725
-1.098,-6.588,1.569
-1.569,-6.588,0.627
-1.725,-6.745,0.627
-1.569,-7.216,0.471
-1.725,-7.059,0.157
-1.725,-6.902,-0.157
-1.412,-6.745,0
-0.784,-6.431,0
-0.314,-6.275,0.314
-0.157,-6.588,0.471
0.784,-6.902,0.314
1.412,-7.373,0.314
2.824,-8,0.471
4.549,-8.941,0.627
5.333,-9.412,1.412
7.216,-9.882,2.039
7.529,-10.196,3.137
8.471,-10.51,4.235
8.314,-10.667,4.863
8.157,-11.608,5.647
7.686,-12.392,5.647
6.902,-12.863,5.333
4.706,-12.706,4.549
4.235,-12.392,3.765
2.824,-11.765,2.98
2.353,-11.765,2.51
1.882,-11.608,2.039
2.039,-11.922,1.882
2.196,-12.078,2.039
2.196,-12.392,2.824
2.353,-12.392,2.98
2.51,-12.392,3.608
2.667,-12.235,4.078
2.824,-12.392,4.549
2.824,-12.706,5.176
2.824,-12.706,5.333
2.667,-12.863,5.02
2.51,-12.863,4.863
2.353,-13.333,4.706
2.039,-13.49,4.235
1.882,-13.961,3.608
1.725,-14.118,3.451
2.039,-14.275,3.137
2.353,-14.118,2.98
2.196,-13.804,2.98
2.98,-12.706,2.51
2.98,-12.078,2.196
4.078,-10.51,2.039
5.176,-9.412,2.039
5.49,-8.941,2.667
6.588,-8.627,3.294
6.431,-8.627,3.608
7.529,-8.941,4.706
8,-9.098,5.02
8.471,-9.569,5.333
8.627,-10.196,5.804
8.941,-10.51,6.118
9.412,-11.451,5.961
9.569,-11.922,5.647
10.039,-12.235,5.176
10.353,-12.235,5.176
11.294,-12.078,4.549
12.235,-12.392,4.549
12.863,-12.235,4.235
13.804,-12.392,4.078
14.275,-12.235,4.078
14.118,-11.765,3.922
14.118,-11.451,3.765
13.49,-10.824,4.078
11.765,-10.196,3.608
11.137,-10.039,3.765
9.882,-9.412,3.294
9.255,-9.255,2.824
8.471,-9.725,1.882
8.471,-10.196,1.882
8.471,-11.608,1.882
8.784,-13.333,2.353
8.941,-14.118,2.51
8.784,-15.216,2.824
9.098,-15.373,3.137
8.941,-15.686,2.824
8.784,-16.314,2.51
7.843,-17.255,1.882
7.686,-17.882,1.098
7.373,-18.039,1.098
6.588,-18.98,0.627
5.961,-19.294,0.627
5.02,-19.451,0.627
4.706,-19.137,0.471
3.608,-18.667,1.098
2.824,-18.353,2.039
2.51,-18.353,2.196
2.039,-18.196,2.667
1.569,-17.725,2.51
1.098,-16.941,3.137
1.098,-16.157,2.824
0.784,-14.902,2.824
0.941,-13.49,2.51
1.098,-12.863,2.039
1.255,-12.235,2.039
1.569,-11.765,2.039
2.039,-11.137,1.725
2.196,-10.98,1.882
2.51,-10.51,1.882
2.51,-10.51,1.882
2.51,-10.196,1.882
2.824,-10.039,2.039
2.824,-10.039,2.039
2.98,-10.039,2.039
2.824,-9.725,2.039
2.824,-9.569,1.725
2.51,-8.941,1.725
2.51,-8.941,1.725
2.039,-8.471,1.255
1.725,-8.314,1.255
1.412,-8,1.255
1.412,-7.843,1.412
1.098,-7.843,1.255
1.098,-7.529,1.725
1.098,-7.686,1.882
1.098,-8,1.882
0.941,-7.843,1.882
0.784,-8,1.882
0.784,-7.843,1.725
0.784,-8,1.569
0.784,-7.686,1.255
0.314,-7.529,1.412
0.471,-7.529,1.255
0.314,-7.529,1.255
0.157,-7.686,0.941
0.471,-7.686,0.941
0.471,-7.529,1.098
0.471,-7.373,0.784
0.314,-7.059,0.941
0.627,-6.902,0.627
0.471,-6.902,0.627
0.941,-6.431,0.627
1.098,-6.902,0.471
1.255,-6.902,0.471
1.882,-7.529,0.314
2.196,-8,0.157
2.667,-8.471,0.314
3.137,-8.941,0.314
3.922,-9.412,0.627
3.765,-9.882,1.725
3.922,-10.196,2.196
4.392,-10.667,3.922
4.863,-10.98,4.549
5.961,-12.549,5.176
6.275,-13.333,5.333
6.431,-14.431,4.706
6.118,-14.431,3.922
5.333,-14.431,3.294
4.078,-14.118,2.353
3.451,-13.961,2.196
2.196,-13.804,1.098
1.725,-13.961,1.098
1.412,-13.961,0.784
1.255,-14.275,1.412
1.255,-14.118,1.882
0.941,-14.118,2.667
0.471,-13.961,3.137
0.157,-13.647,3.765
0,-13.49,4.392
-0.314,-13.176,4.235
0.157,-13.647,3.765
0.314,-14.118,3.608
1.255,-14.588,2.824
1.725,-14.902,2.824
2.98,-15.843,3.608
3.451,-16.157,4.392
5.176,-16.471,5.49
6.745,-16.314,6.588
7.373,-15.529,6.588
8.157,-13.961,5.961
8.471,-12.706,5.333
8.941,-11.294,4.549
9.569,-10.353,4.078
10.039,-9.725,3.765
10.196,-9.882,4.706
10.353,-9.725,5.176
10.353,-9.882,5.647
10.039,-9.882,6.118
9.882,-9.882,6.275
9.882,-9.882,5.961
9.725,-9.725,5.804
9.412,-9.569,5.647
9.412,-9.412,5.647
9.098,-9.412,5.02
8.941,-9.569,5.02
8.784,-9.569,4.549
8.941,-9.569,4.392
9.098,-9.725,4.078
9.412,-9.725,4.235
9.569,-9.725,3.922
9.725,-9.882,3.608
9.882,-10.196,3.922
10.039,-10.196,4.078
10.039,-10.039,3.451
10.039,-9.882,3.608
9.569,-9.569,2.98
9.098,-9.569,2.824
8.941,-10.039,2.667
9.255,-10.824,2.196
9.098,-12.549,2.196
9.412,-13.804,2.196
9.412,-16.314,2.196
9.412,-17.569,2.196
9.725,-17.412,2.039
9.255,-17.725,1.255
8.627,-17.882,0.941
7.686,-18.667,0.627
6.745,-19.451,0.627
5.176,-20.549,1.098
4.078,-21.02,1.725
3.451,-21.02,1.725
2.98,-20.706,2.039
3.137,-20.078,1.569
2.667,-19.137,1.569
2.353,-18.51,1.569
2.039,-17.412,1.569
2.353,-16.314,2.039
2.824,-15.843,2.196
3.608,-15.843,2.98
3.765,-15.686,2.98
4.549,-15.373,3.137
4.549,-14.902,3.137
4.549,-13.647,2.824
4.549,-12.549,2.824
4.549,-11.922,2.51
4.235,-11.137,2.51
4.078,-10.667,2.353
3.294,-10.039,2.196
3.294,-9.882,1.882
2.98,-9.098,1.569
2.667,-8.471,1.412
2.667,-8.471,1.098
2.51,-7.843,0.941
2.196,-7.843,1.098
2.353,-7.529,1.098
2.353,-7.529,1.098
2.667,-7.529,1.098
2.51,-7.373,1.098
2.824,-7.373,1.255
3.608,-7.686,1.098
4.078,-7.529,1.255
4.549,-7.843,1.098
4.549,-8.157,1.255
4.549,-8.627,1.412
4.706,-8.941,1.412
4.392,-9.098,1.882
3.451,-9.098,1.725
2.98,-9.098,1.569
1.725,-8.627,1.412
1.255,-8.314,1.098
0.471,-7.529,1.255
0,-7.216,1.098
-0.314,-7.059,1.098
-0.627,-6.588,0.941
-0.627,-6.588,0.784
-1.098,-6.588,0.627
-1.255,-6.588,0.627
-1.255,-6.588,0.627
-0.941,-6.588,0.314
-0.471,-6.431,0.471
0.314,-6.118,0.627
0.471,-6.275,0.784
1.412,-6.745,1.098
1.882,-7.216,1.255
2.98,-8.157,1.569
4.078,-9.255,2.039
4.706,-9.569,2.196
5.333,-10.039,2.667
5.804,-10.039,2.51
5.176,-10.196,2.667
4.863,-10.196,2.667
4.235,-10.51,2.98
3.922,-10.824,2.667
3.922,-11.294,2.824
4.078,-12.863,3.137
5.02,-13.647,3.294
7.216,-14.902,4.549
8.314,-15.843,5.176
9.725,-17.098,6.275
9.098,-17.569,6.902
8.157,-17.412,7.216
6.431,-16,7.059
5.961,-15.059,6.745
4.863,-13.49,6.431
4.549,-12.706,5.804
3.294,-11.137,5.333
2.824,-10.196,4.706
2.667,-9.725,4.863
3.608,-9.255,5.02
4.078,-9.098,5.176
5.333,-8.627,5.333
5.961,-8.627,5.49
6.588,-8.471,5.961
7.216,-8,6.118
7.059,-7.843,6.118
7.373,-7.373,6.275
7.373,-7.216,6.275
7.216,-6.745,6.431
7.059,-6.588,6.588
6.118,-6.275,6.275
5.647,-6.118,6.275
5.176,-6.431,5.961
4.549,-6.588,5.804
4.078,-6.588,5.647
3.608,-7.059,5.49
3.451,-7.373,5.49
3.451,-7.843,5.333
3.765,-8.627,5.49
3.922,-8.941,5.647
4.392,-9.255,5.49
4.549,-9.725,5.49
5.02,-10.039,5.804
5.49,-10.196,5.49
6.275,-10.667,5.176
7.059,-10.98,5.02
7.843,-11.294,5.333
8.471,-11.451,5.02
9.098,-11.294,4.863
10.039,-11.294,5.02
10.196,-11.608,5.02
10.51,-12.235,5.176
10.353,-12.706,5.333
10.667,-12.706,5.647
10.51,-12.078,5.804
10.51,-11.451,5.961
10.196,-10.353,5.804
9.725,-9.255,5.647
9.098,-9.255,5.49
8,-9.255,3.922
7.373,-9.882,3.608
6.118,-11.137,3.294
6.118,-11.922,3.608
5.961,-12.863,4.078
6.588,-14.431,4.392
7.059,-15.843,4.549
7.216,-18.039,4.549
7.216,-18.667,4.392
6.275,-18.98,3.137
5.961,-18.353,2.353
5.333,-17.255,1.255
4.706,-16.314,0.784
4.706,-15.843,0.471
4.392,-15.216,0.627
4.706,-15.373,0.627
4.235,-15.216,1.098
4.078,-15.059,1.255
3.451,-15.059,2.039
2.98,-14.745,2.98
2.98,-14.745,3.608
2.98,-14.588,4.392
2.98,-14.118,4.235
3.137,-13.49,4.235
3.137,-13.333,4.392
3.294,-12.706,4.078
3.608,-12.078,3.608
3.608,-11.765,3.608
3.608,-11.294,3.137
3.922,-10.98,2.98
3.922,-10.51,2.824
3.608,-10.196,2.667
3.451,-9.882,2.196
3.451,-9.725,2.196
3.451,-9.412,2.039
3.294,-9.098,1.882
3.137,-8.941,1.725
3.137,-8.784,1.569
3.137,-8.627,1.882
2.824,-8.627,2.039
2.51,-8.627,2.51
2.196,-8.627,2.353
2.039,-8.471,2.98
1.882,-8.627,3.137
1.098,-8.627,3.137
0.941,-8.314,2.98
0.784,-8,2.824
0.471,-7.843,2.51
0.471,-7.686,2.51
0.471,-7.216,2.039
0.471,-7.529,1.569
0.157,-7.059,1.569
0.157,-6.745,1.569
0.627,-6.588,1.255
0.471,-7.059,1.569
0.784,-7.059,1.725
0.784,-7.059,1.725
0.784,-7.216,1.569
0.471,-7.686,1.412
0.314,-7.686,1.255
0,-7.686,1.098
-0.157,-8.157,0.941
0,-7.843,0.627
0.157,-8,0.784
0,-8.314,0.941
0.314,-8.627,0.471
0.314,-8.471,0.471
0.471,-8.627,-0.157
0.314,-8.471,-0.314
0.627,-8.314,0
1.412,-8.314,0.784
1.882,-8.471,1.255
2.667,-9.098,2.51
3.137,-9.569,3.608
5.02,-10.98,5.176
6.588,-13.02,6.275
7.059,-13.961,6.588
6.431,-14.902,6.745
6.275,-15.059,6.588
4.863,-15.059,5.961
4.706,-14.588,5.49
3.922,-13.961,4.706
3.922,-13.49,4.078
3.922,-13.333,3.608
3.608,-13.02,2.98
3.451,-12.706,2.98
2.824,-12.392,2.824
2.353,-12.078,2.667
1.255,-11.608,3.294
0.471,-11.765,3.922
0.471,-12.078,4.392
0.627,-13.176,4.706
0.784,-13.647,5.02
1.255,-14.275,5.333
1.412,-14.431,5.49
1.725,-14.902,5.333
2.51,-15.059,5.333
3.137,-14.902,5.176
3.922,-14.588,5.176
4.706,-13.961,4.863
5.804,-13.02,5.176
6.275,-12.706,5.176
6.745,-11.294,5.333
7.529,-10.51,5.333
7.686,-10.196,5.49
7.843,-9.569,5.647
8.157,-9.412,5.961
8,-9.725,5.961
7.843,-9.882,6.588
7.686,-10.196,6.431
7.216,-10.353,6.588
6.902,-10.353,6.431
6.745,-10.353,6.275
6.588,-10.353,6.431
6.431,-10.51,5.961
6.431,-10.824,6.275
6.902,-10.824,5.804
7.843,-11.137,5.647
8.157,-11.294,5.49
9.412,-11.294,5.647
9.882,-11.137,5.647
10.667,-10.98,5.49
10.824,-10.824,5.333
11.294,-10.51,4.863
11.137,-9.882,4.549
11.137,-10.039,4.392
10.51,-9.098,3.765
10.039,-8.784,3.608
9.412,-9.569,3.137
9.412,-10.353,2.667
9.098,-12.863,3.294
9.255,-15.843,3.922
9.569,-17.098,4.235
10.039,-18.667,4.549
10.353,-19.137,4.392
10.039,-19.608,3.765
10.039,-19.765,2.51
9.255,-19.608,2.353
7.686,-19.765,1.882
6.745,-19.922,1.569
4.549,-20.549,1.255
3.451,-20.706,1.098
1.725,-20.863,0.941
0.627,-20.235,0.941
0.471,-20.078,0.627
0.314,-19.294,0.627
0.314,-18.353,0.627
0.784,-16.784,1.255
0.784,-16,1.412
1.255,-14.745,2.51
1.725,-13.176,2.98
1.725,-12.706,3.922
2.039,-11.608,3.922
2.196,-11.294,3.922
2.667,-10.51,3.922
2.98,-10.667,3.294
3.294,-10.039,3.137
3.608,-10.039,2.51
4.235,-9.882,2.196
4.235,-9.569,1.725
4.235,-9.569,1.725
4.078,-9.412,1.255
3.922,-9.098,1.255
3.922,-9.098,1.098
3.451,-8.784,1.255
2.824,-8.627,1.569
2.824,-8.627,1.412
2.667,-8.471,1.725
2.824,-8.471,1.725
2.824,-8.471,1.569
2.98,-8.471,1.569
2.98,-8.314,1.412
2.98,-8.157,1.412
2.824,-8,1.255
2.824,-8,1.098
2.51,-8,1.255
2.51,-8,0.941
2.353,-8.471,0.941
2.196,-8.784,1.098
2.196,-9.098,1.412
2.039,-9.098,1.255
1.725,-9.569,1.098
1.569,-9.725,0.941
1.569,-9.725,0.784
1.569,-9.569,0.627
1.412,-9.725,0.314
1.569,-9.569,0.157
1.569,-9.098,-0.627
1.882,-8.784,-0.471
1.882,-8.627,-0.941
2.196,-8.471,-0.784
2.196,-8.471,-1.098
2.667,-8.941,-1.412
2.824,-8.941,-1.412
3.294,-9.569,-0.784
3.608,-9.725,-0.627
3.294,-9.725,0.471
3.294,-9.412,1.098
2.98,-9.098,1.725
2.824,-9.412,2.98
2.824,-9.725,3.451
3.137,-10.353,4.235
3.451,-10.98,4.392
3.922,-11.608,4.549
3.294,-11.922,4.392
2.196,-11.451,2.98
1.098,-10.98,1.882
0.627,-10.98,1.569
0.627,-11.451,0.784
0.627,-11.451,0.941
0.627,-12.078,1.412
0.941,-12.078,1.412
0.941,-12.392,2.039
0.471,-13.02,2.353
0.784,-13.49,2.824
1.255,-13.804,3.765
1.569,-14.118,3.922
2.51,-14.588,4.392
2.824,-14.745,4.549
3.608,-14.745,4.549
3.922,-14.902,4.549
4.078,-14.902,4.078
5.02,-15.059,4.078
5.49,-14.902,4.706
5.961,-15.059,5.02
6.275,-14.745,5.49
6.902,-14.588,5.49
7.529,-14.118,5.961
7.373,-13.804,5.804
7.373,-13.647,6.275
7.216,-13.49,6.745
7.216,-13.333,6.902
7.373,-13.176,6.902
7.373,-12.706,7.843
8.157,-12.863,8
8.627,-12.392,8
9.412,-11.765,8
9.725,-11.451,8
10.039,-10.98,7.843
10.196,-10.51,7.529
9.725,-10.039,6.902
8.941,-9.725,6.588
8.627,-9.725,6.431
8.314,-9.725,5.961
8.157,-10.039,5.804
8.157,-10.353,5.333
8,-10.51,5.176
7.843,-10.98,5.02
8.157,-10.824,4.549
8.314,-10.824,4.392
8.471,-10.667,4.235
8.157,-10.353,4.078
8,-10.196,3.765
7.843,-10.039,3.451
7.686,-9.882,2.98
8,-10.353,2.51
8,-11.451,2.51
8,-13.333,2.667
8,-14.275,3.294
8.471,-16.627,4.078
8.471,-17.255,4.392
8.471,-17.412,4.392
7.843,-17.255,3.608
7.686,-17.255,2.667
7.059,-17.882,1.882
6.745,-18.196,1.412
5.961,-19.608,1.098
5.804,-19.922,1.412
4.863,-20.078,1.569
3.451,-19.765,1.725
2.824,-19.137,1.569
2.039,-18.039,1.882
1.725,-17.412,1.882
1.098,-16.157,1.725
0.941,-15.373,2.039
0.941,-13.49,2.51
1.569,-12.235,3.137
1.882,-12.078,3.451
2.353,-11.137,3.608
2.353,-10.667,3.451
2.824,-10.353,3.608
2.667,-10.039,3.137
3.137,-9.412,2.98
3.294,-8.941,2.196
3.451,-8.784,2.039
3.294,-8.471,1.569
3.137,-8.157,1.255
3.608,-7.843,0.941
3.608,-7.843,0.941
3.922,-7.843,0.941
3.765,-8.157,1.255
3.608,-8.314,1.412
3.294,-8.471,1.255
2.98,-8.471,1.412
2.98,-8.157,1.255
2.667,-8.157,1.412
2.039,-8.157,1.098
1.569,-7.843,0.941
0.941,-7.529,0.941
0.471,-7.529,0.471
0.627,-7.529,0.471
0.941,-7.529,0.471
1.412,-7.373,0.314
2.667,-7.373,0.314
4.235,-7.686,0.471
4.863,-7.686,0.314
5.647,-8.471,0
5.804,-8.627,0
5.647,-9.725,0
5.647,-10.196,0.157
5.176,-10.667,0.314
4.706,-11.137,0.627
4.392,-11.294,0.784
3.294,-10.824,1.412
2.98,-10.196,1.098
2.353,-9.098,1.882
1.569,-7.686,2.196
1.412,-7.216,2.196
1.098,-6.902,2.196
1.098,-7.059,2.353
1.412,-7.529,2.039
1.569,-7.686,1.882
1.569,-8.157,2.196
1.255,-8.784,2.824
1.412,-9.098,3.451
1.255,-9.412,4.863
0.941,-9.255,5.02
0.941,-9.725,5.647
0.941,-9.882,5.647
1.098,-10.353,6.431
1.098,-11.137,6.275
1.412,-11.451,5.804
1.255,-11.922,5.176
1.412,-12.235,4.549
0.784,-12.706,3.451
0.314,-12.863,3.137
-0.157,-13.02,2.51
-0.314,-12.863,2.196
-0.314,-12.549,2.039
0,-12.549,2.353
0,-12.392,2.353
0,-12.235,2.824
0.157,-12.392,2.98
0.471,-12.078,3.137
1.255,-11.922,3.608
1.725,-11.922,3.608
2.196,-11.294,3.608
2.824,-11.451,3.765
2.98,-11.294,3.451
3.294,-11.137,3.294
3.294,-10.98,3.294
3.608,-11.608,3.137
3.922,-11.451,3.137
4.078,-11.922,3.451
4.392,-11.922,3.765
4.706,-11.922,4.078
4.863,-11.922,4.235
4.863,-11.765,4.078
4.549,-11.608,3.608
4.863,-11.765,3.294
5.176,-11.608,2.98
5.02,-11.608,2.667
5.804,-11.765,2.824
6.118,-11.922,3.137
6.745,-11.922,3.451
7.373,-12.392,3.922
8,-12.392,4.863
8.314,-12.392,5.333
8.314,-12.078,5.647
8.784,-11.922,5.647
8.941,-11.765,5.804
9.412,-11.765,5.804
10.039,-11.765,6.275
10.039,-11.765,5.804
10.039,-11.765,5.804
10.039,-11.608,5.804
9.725,-11.137,5.49
9.882,-10.98,5.176
9.569,-10.353,4.706
9.725,-9.725,4.392
9.412,-9.255,3.765
8.941,-8.784,3.608
9.255,-8.471,3.608
9.098,-9.255,3.137
8.627,-9.882,3.608
8.627,-11.137,3.451
8.471,-12.235,3.294
8.471,-12.706,3.451
8.471,-13.804,3.137
8.941,-13.961,2.824
9.569,-14.745,2.039
9.882,-15.216,1.725
9.725,-16.471,1.098
9.412,-17.882,1.098
9.569,-18.51,0.784
8.627,-18.824,0.941
8,-19.608,1.255
6.118,-20.078,1.569
5.333,-20.078,2.039
4.078,-20.078,2.353
3.137,-19.451,2.51
2.667,-19.294,2.51
2.353,-18.353,2.353
2.196,-17.882,2.667
2.667,-17.255,2.51
2.51,-16.627,2.51
2.667,-16,2.824
2.667,-14.588,2.667
2.353,-13.961,2.667
2.667,-13.647,2.98
2.51,-12.863,3.137
2.667,-12.392,2.667
2.667,-12.078,2.824
2.51,-11.608,2.98
2.667,-11.137,2.667
2.353,-10.98,2.824
2.196,-10.667,2.51
2.353,-10.51,2.824
2.51,-10.196,2.667
2.353,-9.882,2.353
1.569,-9.725,2.51
1.569,-8.941,2.51
1.569,-8.627,2.824
1.098,-7.843,2.039
0.941,-7.373,2.196
0.627,-6.745,1.882
0.471,-6.588,1.882
0.314,-6.118,1.882
0.471,-5.647,1.725
0.314,-5.176,1.725
0.314,-5.333,2.039
0.627,-5.49,2.196
0.941,-5.176,2.51
0.627,-5.333,2.667
0.941,-5.333,2.667
0.941,-5.176,2.667
1.255,-5.333,2.824
1.412,-5.02,2.51
1.412,-5.176,2.824
1.412,-5.176,2.353
1.255,-5.333,2.196
1.255,-5.647,2.039
1.569,-6.118,1.882
1.569,-6.275,1.569
1.569,-6.745,1.412
1.725,-6.588,1.569
1.725,-6.588,1.725
2.039,-6.588,1.725
2.039,-6.745,2.196
2.51,-7.373,2.196
2.667,-7.843,2.353
3.137,-8.941,2.824
3.294,-9.569,2.824
4.078,-9.882,2.824
4.392,-10.196,2.98
4.863,-10.51,2.824
5.02,-10.51,2.824
4.863,-10.353,2.667
5.176,-10.667,2.353
4.863,-10.667,2.667
4.235,-10.824,2.51
3.451,-11.294,2.98
3.294,-11.451,3.137
2.824,-11.765,3.294
2.196,-11.922,3.294
2.039,-11.922,3.608
1.882,-12.078,3.451
1.725,-11.922,3.294
1.882,-12.078,3.608
2.196,-12.078,3.922
2.667,-12.235,3.765
2.824,-12.235,3.922
3.137,-12.235,3.451
3.294,-12.078,3.608
3.294,-11.922,3.451
2.824,-11.765,3.451
2.98,-11.608,3.294
2.824,-11.608,3.294
2.824,-11.765,2.98
2.824,-11.765,2.667
2.98,-11.922,2.98
3.451,-12.235,3.137
3.922,-12.235,3.608
3.922,-12.863,4.392
4.392,-13.176,5.176
4.549,-13.49,5.49
4.549,-13.333,5.804
4.549,-12.863,5.647
4.706,-12.078,4.863
5.176,-11.451,4.392
5.333,-11.137,4.078
6.275,-10.667,4.549
6.745,-10.51,5.02
7.529,-10.824,5.333
7.686,-10.98,5.49
7.373,-11.451,5.647
6.745,-11.451,5.333
7.059,-11.608,5.333
7.216,-11.608,5.02
7.373,-11.451,5.02
7.843,-11.608,4.706
7.843,-11.922,4.706
8.157,-12.235,4.549
8.157,-12.392,4.235
8.471,-12.549,4.235
8.627,-12.235,3.922
8.941,-12.392,4.078
9.255,-12.392,4.078
9.412,-11.765,3.922
9.569,-11.451,4.078
9.725,-10.51,3.922
9.569,-10.353,3.922
9.255,-9.569,3.294
9.098,-9.569,3.137
8.784,-9.725,2.51
8.784,-10.196,2.196
8.627,-11.451,2.353
8.784,-13.02,2.039
8.784,-13.804,2.353
9.255,-14.431,2.98
9.725,-14.275,3.137
9.569,-13.647,2.667
9.725,-13.49,2.667
9.412,-14.588,2.51
9.098,-16,2.039
8.471,-16.627,2.353
7.216,-17.569,2.353
6.745,-17.725,2.667
6.118,-18.039,2.196
5.804,-17.725,2.353
5.176,-17.725,2.039
5.333,-17.412,1.882
5.333,-17.412,2.039
5.176,-17.569,1.725
5.02,-17.569,1.569
4.863,-17.725,1.725
4.706,-17.569,1.882
4.235,-17.569,1.882
3.137,-17.255,1.882
2.667,-16.784,1.882
1.725,-16.157,2.353
1.569,-16,2.51
0.784,-14.902,2.667
0.784,-14.431,2.667
0.314,-13.176,2.353
0.157,-12.078,2.353
0.157,-11.451,2.353
0.314,-10.51,2.196
0.314,-9.882,2.039
0.471,-9.255,2.039
0.784,-8.941,2.039
1.412,-8.314,1.882
1.098,-7.529,1.725
1.412,-7.216,1.725
1.569,-7.059,1.725
1.569,-6.902,1.882
1.412,-6.588,1.725
1.412,-6.431,1.882
1.255,-5.961,1.725
1.255,-5.647,1.882
1.412,-5.804,1.882
1.882,-5.333,2.039
1.725,-5.49,2.039
1.569,-5.176,1.882
1.255,-5.176,2.039
0.941,-5.02,2.039
0.784,-4.863,1.725
0.471,-4.706,1.882
0.471,-4.706,1.412
0.157,-5.02,1.255
0.471,-5.333,1.098
0.157,-5.49,1.255
0.314,-6.275,1.569
0,-7.373,1.725
0,-7.686,1.725
0,-8.471,1.882
0,-8.157,1.882
0,-8.627,1.569
-0.157,-8.314,1.255
0.157,-8.471,1.255
1.255,-8.314,0.941
2.196,-8.471,0.941
3.451,-8.784,1.569
4.078,-8.941,1.569
5.02,-9.255,2.98
5.49,-9.569,3.294
5.333,-10.353,4.549
5.02,-11.137,5.333
5.02,-11.451,5.49
4.706,-12.549,5.647
4.392,-13.176,5.176
3.922,-13.647,4.235
3.608,-13.647,3.608
2.98,-13.02,2.98
2.353,-12.078,1.882
2.51,-11.922,1.412
1.882,-11.608,1.098
1.569,-11.608,1.255
1.569,-11.922,1.412
1.569,-12.235,1.569
1.569,-12.706,1.882
1.725,-12.706,2.353
1.569,-12.549,2.51
1.255,-12.235,2.98
1.569,-12.235,3.294
2.039,-12.078,3.608
2.196,-12.549,3.451
2.824,-13.02,3.294
3.294,-13.647,3.608
3.922,-13.804,3.451
3.922,-13.961,4.078
4.235,-14.275,4.235
4.392,-13.804,4.706
4.392,-13.647,4.706
5.02,-13.176,4.392
5.176,-12.863,4.078
5.49,-12.549,3.765
5.804,-12.235,3.294
5.647,-11.765,3.137
6.275,-11.294,3.451
6.588,-11.294,3.765
7.059,-10.98,4.392
7.059,-11.294,5.02
7.059,-11.608,5.176
6.745,-12.235,5.333
6.745,-12.235,5.333
6.431,-12.863,5.176
6.902,-12.549,5.333
7.216,-12.392,5.02
7.373,-12.392,5.176
7.843,-12.392,5.176
7.686,-12.392,5.176
8.157,-12.392,5.02
8.471,-12.235,5.02
9.255,-12.078,5.02
8.941,-11.922,4.863
9.569,-11.294,5.02
9.569,-10.98,4.706
10.039,-10.51,4.706
9.882,-10.353,4.549
9.882,-9.725,4.392
9.569,-9.882,4.235
9.098,-9.569,4.078
8.471,-9.412,3.765
8.314,-9.725,3.608
8.157,-10.353,3.137
7.686,-10.667,3.137
7.529,-11.765,3.451
7.373,-12.392,3.451
7.686,-12.549,3.608
7.843,-13.02,3.451
8.157,-13.333,3.608
8.784,-13.804,2.98
8.941,-14.745,2.51
8.941,-16.627,2.039
8.314,-18.51,1.725
7.529,-19.451,1.882
5.961,-19.765,1.882
5.02,-19.765,1.569
3.451,-19.608,1.412
2.98,-18.824,1.412
1.725,-18.039,1.255
1.412,-17.412,1.255
0.941,-16.941,1.569
1.255,-16.157,2.039
1.255,-15.686,2.039
1.569,-14.902,2.824
1.725,-14.431,3.294
2.039,-13.647,3.451
1.569,-13.02,3.922
1.412,-12.863,4.078
1.569,-12.235,3.922
1.569,-12.078,3.922
1.725,-11.294,3.608
2.039,-10.98,3.294
2.51,-10.51,2.824
3.137,-10.039,2.51
3.451,-10.039,2.51
4.235,-10.039,2.824
4.549,-9.882,2.51
5.02,-10.353,2.667
5.02,-10.196,2.51
5.02,-10.196,2.667
5.02,-10.196,2.51
4.549,-10.039,2.353
4.235,-9.882,1.882
3.608,-9.569,1.569
2.824,-9.098,1.569
2.353,-8.627,1.412
1.882,-8.157,1.255
1.725,-7.843,1.569
1.569,-7.686,1.569
1.569,-7.216,1.725
1.098,-7.059,1.882
1.255,-6.588,2.039
1.255,-6.745,2.039
1.098,-6.275,2.353
0.784,-6.431,2.196
0.941,-6.275,1.882
0.941,-5.961,2.039
0.941,-5.961,1.725
0.941,-5.961,1.412
1.098,-5.961,1.255
1.569,-5.961,1.412
2.039,-6.431,0.941
2.51,-6.431,1.255
2.98,-6.588,0.784
3.608,-6.588,1.098
4.706,-6.118,0.941
4.706,-6.431,0.941
4.549,-6.275,1.255
4.706,-6.588,1.725
4.549,-6.745,1.882
4.549,-6.902,2.196
4.549,-7.216,2.51
4.078,-7.686,2.98
3.922,-7.843,3.294
3.765,-8.157,4.078
3.922,-8.627,5.176
4.235,-8.627,5.49
5.02,-8.941,6.902
5.49,-9.255,7.216
5.49,-9.725,7.373
5.647,-9.725,7.529
5.02,-9.412,7.216
4.078,-9.098,6.588
3.608,-8.627,6.275
2.353,-8.314,5.02
1.569,-8.314,4.392
0.941,-8.157,3.137
0.314,-8.157,2.824
0.471,-8.471,1.882
0.784,-8.157,1.725
0.941,-8.314,1.098
1.255,-8.471,1.569
1.412,-8.941,1.569
1.569,-8.941,1.569
1.725,-9.255,1.882
1.882,-9.098,1.882
2.039,-9.412,1.882
2.353,-9.412,2.196
3.137,-9.882,2.51
3.608,-9.882,2.98
4.863,-10.51,4.078
5.49,-10.824,4.392
5.647,-11.608,5.49
5.961,-12.078,6.431
5.804,-12.235,6.588
5.804,-12.392,7.373
5.49,-12.392,7.529
6.431,-12.078,7.373
7.059,-11.608,7.059
7.686,-11.137,5.961
8,-10.51,5.176
8.314,-10.353,4.863
8.471,-10.196,5.176
8.627,-10.51,5.647
8.784,-10.667,6.275
8.471,-10.824,6.745
8.784,-10.98,7.059
8.941,-10.667,7.529
9.098,-10.353,7.529
9.255,-10.353,7.529
9.412,-10.353,7.216
9.412,-10.353,7.059
9.412,-10.51,6.745
9.412,-10.98,6.275
9.569,-11.451,5.961
9.569,-11.765,5.804
9.725,-11.765,5.647
9.882,-11.608,5.647
10.196,-11.294,5.333
10.039,-10.98,5.176
9.882,-10.667,5.02
9.725,-10.353,4.392
9.412,-10.353,4.235
9.412,-11.137,3.922
9.098,-11.922,3.922
8.941,-12.706,3.922
8.941,-13.333,3.922
8.941,-13.961,4.392
9.412,-13.49,4.235
9.412,-12.863,3.765
9.569,-12.235,3.294
9.569,-12.549,2.667
9.412,-14.431,2.039
9.412,-15.843,1.412
9.098,-16.941,1.255
8.157,-17.412,2.039
7.529,-17.882,2.196
5.647,-18.039,2.353
5.176,-18.039,2.824
3.922,-17.412,2.353
2.98,-16.471,2.196
2.51,-16,2.039
1.882,-14.745,2.353
2.039,-14.118,2.353
2.039,-13.02,2.51
2.196,-12.549,2.824
2.353,-11.608,3.137
2.196,-10.824,3.294
2.353,-10.51,3.608
2.353,-10.196,3.608
2.51,-10.039,3.922
2.51,-9.725,3.765
2.667,-9.412,3.608
2.51,-9.255,3.451
2.667,-9.255,2.98
2.824,-8.941,2.98
2.51,-8.627,2.353
2.51,-8.784,2.196
2.824,-8.314,2.039
2.824,-8.471,2.039
3.137,-8.314,2.196
3.294,-8.157,2.353
3.451,-8.471,2.98
3.451,-8.784,2.824
3.451,-8.627,2.824
2.98,-8.471,2.824
2.98,-8.471,2.667
2.667,-8.157,2.667
2.353,-8,2.51
1.882,-7.843,2.039
1.882,-7.373,1.882
1.569,-7.216,2.039
1.725,-7.059,1.882
1.725,-7.216,1.882
2.353,-7.059,1.882
2.353,-7.529,1.725
2.824,-8,1.725
1.882,-8.941,1.098
1.255,-9.569,0.627
0.157,-10.353,0.157
-0.314,-10.98,-0.314
-0.941,-11.137,-1.098
-1.412,-10.196,-0.941
-1.255,-9.255,-0.471
-0.314,-7.529,0.627
0.157,-7.373,0.941
0.627,-7.216,2.667
1.098,-7.373,3.451
1.725,-7.843,4.078
2.824,-8.471,4.549
3.137,-8.784,4.549
3.765,-8.627,4.549
3.765,-8.627,4.235
3.451,-8.471,3.922
3.451,-8,3.608
3.765,-7.686,3.451
4.863,-8,3.294
4.863,-8.314,3.294
5.02,-9.412,2.98
4.863,-9.725,2.824
4.235,-10.353,2.667
3.608,-10.667,2.51
2.51,-10.824,2.353
1.725,-10.824,2.039
1.569,-10.98,2.039
1.098,-11.294,2.196
1.255,-11.451,2.353
1.412,-11.765,2.824
1.412,-11.922,3.137
1.569,-12.392,3.765
1.725,-12.863,4.706
1.569,-13.02,5.176
1.725,-13.333,5.49
1.725,-13.176,5.647
2.039,-12.863,5.176
2.353,-12.549,5.176
2.824,-11.922,4.392
3.294,-11.451,3.765
3.451,-11.294,3.608
3.451,-11.137,3.765
3.765,-10.98,3.608
3.922,-10.98,3.765
3.765,-10.51,3.765
4.078,-10.353,3.765
4.235,-10.196,3.922
4.392,-10.039,4.392
4.706,-10.353,4.235
4.863,-10.353,4.235
5.49,-10.51,4.078
6.118,-11.137,4.549
6.275,-11.608,4.863
7.216,-12.235,5.49
7.529,-12.392,6.275
8,-12.235,6.588
8.157,-12.078,6.745
8.157,-11.765,6.902
7.843,-11.765,6.431
8,-11.608,6.588
8.157,-12.549,6.902
8.157,-12.549,6.902
8.627,-12.863,7.373
8.627,-12.863,7.529
9.098,-12.549,7.843
9.569,-12.392,7.843
9.412,-12.078,7.686
9.882,-11.608,7.373
9.882,-11.137,7.059
9.725,-10.98,6.745
9.412,-10.824,6.431
9.412,-10.98,5.647
9.098,-11.922,5.176
8.627,-12.706,5.02
8.314,-13.647,4.549
8,-14.431,4.549
7.843,-15.529,4.706
7.529,-15.216,4.863
7.373,-14.275,4.392
7.216,-13.49,3.294
7.216,-13.333,2.824
6.902,-14.275,2.039
6.275,-14.902,1.569
5.176,-16.157,1.569
4.706,-16.471,1.412
3.294,-17.255,1.725
2.196,-17.255,1.725
2.039,-17.255,1.882
1.412,-16.627,1.569
1.098,-16.314,1.569
0.941,-15.843,1.725
0.941,-15.529,1.882
1.255,-14.745,2.353
1.725,-13.961,2.51
1.882,-13.49,2.98
2.039,-12.706,3.922
2.196,-12.078,3.765
2.196,-11.137,4.235
2.51,-10.98,4.392
2.98,-10.353,4.078
3.137,-10.353,3.608
3.294,-10.353,3.294
3.451,-10.196,3.137
3.922,-10.196,2.667
3.922,-10.353,2.824
3.765,-10.196,2.667
3.765,-10.039,2.667
3.451,-10.196,2.667
3.294,-10.039,2.51
3.137,-10.196,2.51
2.98,-9.882,2.667
2.824,-10.196,2.353
2.824,-9.882,2.039
2.51,-9.725,1.569
1.882,-9.569,1.412
1.882,-9.412,1.412
1.255,-8.941,1.412
1.098,-8.784,1.255
0.784,-8.627,1.412
0.941,-8.627,1.412
1.098,-8.471,1.412
1.098,-8.314,1.569
1.412,-8.471,1.725
1.569,-8.471,2.039
1.569,-8.627,1.725
1.569,-8.471,2.039
1.569,-8.471,1.882
1.725,-8.471,2.039
1.569,-7.843,1.725
1.569,-8,1.882
1.569,-7.843,1.725
1.412,-7.529,1.725
1.725,-7.216,1.569
1.569,-6.745,1.569
1.882,-6.745,1.882
2.039,-6.902,2.196
1.882,-7.059,2.353
2.353,-7.216,2.824
2.667,-7.686,2.824
2.51,-8,2.824
2.667,-8,2.667
2.353,-8,2.667
2.196,-7.686,2.353
2.353,-8,2.039
2.039,-8,1.882
2.353,-8.157,2.039
2.51,-8.627,2.353
2.824,-9.255,2.51
2.98,-10.353,2.667
2.824,-11.137,2.824
2.667,-11.294,2.98
2.353,-11.765,2.98
2.039,-11.765,3.137
1.569,-11.765,3.451
1.725,-11.765,3.294
1.569,-12.078,3.294
1.725,-12.078,3.137
1.725,-12.078,3.608
2.039,-11.765,3.294
2.039,-11.765,3.451
1.725,-11.451,3.294
1.569,-11.608,3.451
1.412,-11.608,3.137
0.941,-11.922,3.137
1.098,-11.765,3.137
1.255,-11.922,3.137
1.098,-12.235,3.137
1.725,-12.392,3.294
1.569,-12.863,3.608
1.725,-13.333,3.765
2.196,-13.961,3.765
2.353,-14.118,3.765
2.667,-14.118,3.451
2.98,-13.804,3.451
3.922,-13.49,3.765
4.863,-12.863,3.765
5.647,-12.706,3.922
7.216,-12.078,4.235
8,-11.922,4.392
9.725,-11.922,6.118
10.353,-11.765,6.588
11.451,-11.922,8.157
12.392,-11.765,9.098
12.392,-11.765,8.941
12.235,-11.294,8.471
12.078,-11.294,8.314
11.451,-10.98,7.216
11.294,-10.98,6.745
10.353,-11.294,6.275
10.039,-11.765,5.333
9.569,-11.608,5.176
9.098,-12.078,4.706
8.941,-11.765,4.706
8.471,-11.608,4.549
8.471,-11.608,4.549
8.157,-11.294,4.706
7.843,-10.824,3.922
8,-10.51,3.922
7.843,-10.353,3.765
7.843,-10.196,3.608
7.529,-10.196,3.137
7.373,-10.667,3.137
6.902,-11.922,2.824
6.431,-13.49,2.824
6.431,-13.961,2.98
6.118,-14.588,3.137
6.431,-14.745,2.98
6.588,-14.745,2.51
6.745,-14.588,2.353
7.059,-15.059,1.725
7.373,-16.157,1.569
7.373,-16.627,1.882
7.059,-17.255,1.882
6.745,-17.255,2.039
6.118,-17.569,2.667
5.49,-17.882,2.667
4.549,-17.569,2.51
3.608,-16.941,2.196
3.294,-16.471,2.196
3.137,-16,1.882
3.137,-15.059,1.882
2.824,-14.588,1.882
2.98,-13.804,1.882
2.824,-12.706,2.196
2.98,-12.078,2.353
2.98,-11.922,2.51
2.667,-11.608,2.824
2.51,-11.451,2.98
2.51,-10.98,2.667
2.51,-10.98,2.98
2.353,-10.824,2.667
2.353,-10.353,2.353
2.353,-10.196,2.196
2.51,-10.039,2.039
2.667,-9.725,1.725
2.667,-9.725,1.725
2.667,-9.882,1.882
2.824,-9.412,1.569
2.824,-9.255,1.725
2.98,-9.098,1.725
2.824,-8.941,1.882
2.667,-8.784,2.039
2.51,-8.941,1.882
2.196,-8.627,1.882
2.51,-8.627,2.196
2.353,-8.314,2.196
2.51,-8.471,2.196
2.196,-8.471,2.039
2.51,-8.314,2.196
2.667,-8.157,2.196
2.667,-8.314,2.196
2.667,-8.471,2.196
2.824,-8.627,2.196
2.667,-8.784,2.196
2.51,-9.098,2.196
2.51,-9.255,1.882
2.51,-9.412,1.882
2.51,-9.569,1.725
2.196,-9.725,1.569
2.196,-9.725,1.255
2.196,-9.725,1.412
2.039,-8.941,1.412
2.196,-8.627,1.255
2.196,-8.157,1.569
2.667,-8.157,1.569
2.353,-7.843,2.039
2.51,-8.627,2.039
2.51,-8.941,2.196
2.667,-8.941,2.98
2.51,-8.784,2.98
2.51,-8.314,2.98
2.353,-7.843,2.98
2.667,-7.843,2.824
2.353,-7.843,2.51
2.51,-8.157,2.51
2.51,-8.784,2.51
2.51,-9.098,2.824
2.353,-9.882,3.137
1.725,-10.353,3.137
1.255,-10.51,3.451
0.157,-10.667,3.451
0,-10.98,3.608
-0.157,-10.98,3.451
-0.157,-10.98,3.608
0.157,-11.451,3.765
0.627,-11.294,3.765
0.784,-11.294,4.078
1.098,-11.137,3.765
1.098,-10.98,3.608
0.941,-10.824,3.765
0.941,-10.824,3.451
0.784,-10.824,3.137
0.941,-10.98,2.98
1.098,-11.294,2.824
1.412,-11.608,3.137
1.569,-12.078,3.294
2.196,-12.549,3.451
2.353,-13.02,3.608
2.353,-13.176,3.765
2.51,-13.176,3.294
2.353,-13.333,3.294
2.824,-13.02,2.51
3.137,-12.863,2.353
3.922,-12.863,1.882
4.392,-12.706,2.039
5.333,-12.863,2.196
5.961,-13.333,2.98
6.275,-13.647,3.294
6.902,-14.275,4.078
7.529,-14.118,4.549
8.314,-14.431,5.02
8.627,-14.275,5.333
10.039,-14.118,5.333
11.294,-13.647,5.49
11.765,-13.02,5.333
12.863,-12.863,4.863
13.176,-12.549,4.706
13.647,-12.392,4.392
13.333,-12.549,4.078
13.333,-12.392,3.608
12.706,-12.392,3.137
12.549,-12.235,2.98
11.294,-11.765,2.98
10.667,-11.137,3.294
9.725,-10.824,3.451
9.098,-10.51,3.451
7.843,-10.353,3.608
6.431,-10.196,3.294
5.961,-10.039,3.294
5.333,-10.353,3.294
4.706,-10.51,3.294
4.706,-11.451,3.451
4.863,-11.765,3.608
5.333,-11.922,3.765
5.804,-12.078,3.922
6.118,-11.608,4.078
7.216,-11.294,3.765
7.529,-10.98,3.294
8.471,-11.137,2.824
8.784,-11.451,2.51
9.569,-12.235,1.882
10.039,-13.647,1.882
10.196,-14.588,2.039
10.196,-15.373,2.039
10.039,-15.373,2.353
9.412,-15.843,2.824
8.471,-16.157,2.98
6.745,-16.157,3.451
5.804,-15.686,3.294
5.02,-15.529,3.137
4.078,-14.588,3.137
3.608,-14.588,3.294
2.667,-13.961,3.451
2.353,-13.804,3.765
1.569,-13.647,4.078
1.098,-13.02,4.078
1.098,-12.392,4.235
1.098,-11.765,3.765
0.941,-11.451,3.451
1.255,-10.353,3.137
1.725,-10.196,3.137
2.353,-9.569,2.98
2.98,-9.412,2.98
3.451,-9.412,2.824
4.235,-9.412,2.824
4.235,-9.412,2.667
4.392,-9.882,3.137
4.235,-9.725,2.667
4.235,-9.725,2.51
4.235,-10.039,2.353
4.235,-9.882,2.353
3.765,-9.882,2.039
3.765,-9.882,2.039
3.137,-10.039,2.196
2.824,-10.039,2.039
2.51,-9.725,2.039
2.353,-9.882,2.196
2.196,-9.882,2.039
1.569,-9.412,1.725
1.412,-9.569,1.725
1.569,-9.412,1.882
1.569,-9.255,1.569
1.569,-9.098,1.412
2.039,-8.784,1.412
1.882,-8.784,1.412
2.353,-8.784,1.098
2.353,-8.627,1.255
2.667,-8.784,0.941
2.667,-8.627,0.784
2.353,-8.471,0.941
2.51,-8.314,1.098
2.51,-8,1.098
2.353,-7.373,1.569
2.353,-7.216,1.569
2.039,-6.902,1.725
2.196,-7.216,1.882
2.196,-7.686,2.196
2.353,-8,2.196
2.667,-8.157,2.196
2.51,-8.157,2.039
2.51,-8.157,2.039
2.667,-7.843,2.196
2.667,-7.686,2.353
2.353,-7.686,2.667
2.51,-8,2.824
2.353,-8.471,3.137
2.824,-9.412,3.451
2.824,-10.039,3.765
2.98,-10.51,3.608
2.98,-10.824,3.608
2.51,-11.137,3.608
1.725,-10.98,2.98
1.569,-10.98,2.824
1.098,-10.98,2.51
1.255,-10.824,2.51
1.412,-10.824,2.196
1.569,-10.667,2.039
1.725,-10.353,2.039
1.882,-10.353,2.196
1.725,-10.353,2.039
1.725,-10.353,2.51
1.569,-10.353,2.353
1.569,-10.353,2.51
1.725,-10.51,2.353
1.882,-10.667,2.353
2.196,-10.98,2.196
2.667,-10.98,2.039
2.98,-11.451,2.353
3.294,-11.765,2.196
3.765,-12.549,2.667
4.235,-13.02,3.137
4.235,-13.333,3.451
4.706,-13.647,3.765
4.863,-14.275,3.765
5.333,-14.588,3.765
5.333,-14.275,3.294
5.961,-13.804,2.667
6.588,-13.49,2.667
7.059,-13.02,2.98
7.843,-12.549,3.922
8.627,-12.549,4.392
9.725,-12.392,5.647
10.353,-12.392,6.118
11.137,-12.078,6.902
11.922,-11.765,6.745
11.922,-11.137,6.431
12.235,-11.294,5.647
12.863,-11.294,5.49
13.02,-11.294,5.333
13.176,-11.451,5.176
13.49,-11.137,5.176
13.333,-11.137,4.863
13.02,-10.98,4.392
12.549,-11.137,3.922
12.078,-11.137,3.765
11.137,-10.824,3.765
10.98,-10.824,3.294
10.196,-10.353,3.137
9.882,-10.196,3.294
9.882,-10.353,2.824
9.882,-10.824,2.667
10.196,-11.608,2.51
10.51,-12.549,2.039
10.51,-13.176,2.196
10.824,-14.745,1.569
10.667,-16.157,1.569
10.353,-16.157,1.725
9.255,-16.314,1.569
8.471,-16.471,1.255
6.275,-17.098,1.255
5.647,-17.412,0.941
3.451,-17.882,1.098
2.353,-18.824,1.569
1.882,-18.824,2.039
1.882,-18.51,2.039
1.882,-18.039,2.039
2.196,-16.784,2.039
2.353,-16.627,1.725
2.824,-16,1.725
3.137,-15.529,1.412
3.137,-15.216,1.725
2.98,-15.059,1.725
2.98,-14.902,1.882
2.98,-14.118,2.196
2.667,-13.49,2.353
2.667,-12.549,2.039
2.667,-11.608,2.039
2.824,-10.98,2.039
2.667,-10.196,2.039
2.824,-9.882,1.882
2.98,-9.098,1.725
2.98,-8.784,1.569
3.137,-8.157,1.569
3.137,-7.686,1.725
2.98,-7.373,1.412
2.824,-6.902,1.412
2.824,-7.059,1.569
2.667,-6.588,1.569
2.51,-6.588,1.725
2.353,-6.745,1.882
2.353,-6.745,2.196
2.196,-6.902,2.353
2.353,-7.059,2.353
2.353,-7.216,1.882
2.824,-7.059,1.725
2.824,-7.059,1.569
2.98,-7.059,1.098
3.451,-7.059,1.255
3.451,-6.902,1.098
3.451,-7.216,1.098
3.451,-7.373,0.941
3.608,-7.843,1.098
3.765,-8,1.098
3.922,-8.471,1.412
3.765,-8.941,1.569
3.922,-9.255,1.569
3.765,-9.255,1.725
3.765,-9.725,1.412
3.451,-10.039,1.725
3.294,-10.039,1.412
2.98,-9.882,1.725
2.98,-9.412,1.569
2.98,-9.255,1.569
2.824,-8.941,1.725
2.98,-8.627,1.569
2.98,-8.941,1.569
2.98,-8.941,1.569
2.98,-8.941,1.412
3.137,-9.255,1.569
3.294,-8.941,1.255
3.765,-8.627,1.412
3.765,-8.627,1.725
3.608,-8,1.725
3.451,-7.843,1.882
3.294,-7.686,2.353
3.608,-8.314,2.667
3.922,-8.784,2.667
4.392,-9.882,2.824
4.549,-10.196,3.137
4.392,-11.137,3.294
4.235,-11.451,3.137
3.922,-11.922,2.98
3.451,-12.078,2.667
2.98,-12.078,2.98
2.51,-12.235,2.98
2.51,-12.235,2.824
2.353,-12.235,2.824
2.353,-12.078,2.824
2.039,-11.922,2.98
1.882,-11.294,2.824
1.412,-11.294,2.824
0.941,-10.98,2.824
0.784,-10.667,2.98
0.314,-10.824,2.98
0.627,-10.667,3.137
0.627,-10.98,2.824
0.941,-11.137,2.824
1.725,-11.451,3.137
1.882,-11.922,3.294
2.51,-12.392,3.451
2.824,-12.549,3.451
3.451,-13.02,3.765
4.392,-13.333,4.078
4.706,-13.02,3.922
4.863,-12.863,3.765
5.49,-12.706,3.451
6.431,-11.922,3.137
6.902,-11.451,3.294
8,-10.98,3.765
9.569,-10.51,5.02
9.882,-10.667,5.804
10.667,-10.353,7.686
11.137,-10.353,8.314
11.294,-10.353,9.098
11.137,-10.196,9.098
10.667,-10.51,8.627
10.353,-10.51,8.157
10.353,-10.98,8.157
10.196,-11.294,7.059
10.196,-10.98,6.588
10.039,-11.137,6.118
10.039,-10.98,5.333
9.882,-11.137,4.863
9.725,-11.608,4.549
9.569,-11.765,4.235
9.098,-11.765,3.922
8.941,-11.765,3.765
8.471,-11.451,3.608
8.471,-11.137,3.451
8,-10.51,2.98
8,-10.51,2.51
8,-10.98,2.196
7.843,-11.765,2.353
8.157,-12.392,2.196
8.157,-13.961,2.667
8.314,-15.216,2.824
8,-16,3.294
8,-16.471,3.765
7.686,-16.157,3.608
7.373,-15.843,3.294
7.216,-16,2.98
7.059,-16.784,2.51
6.275,-17.725,2.039
6.118,-18.353,1.882
5.333,-18.98,1.569
5.333,-19.137,1.725
4.549,-18.98,1.412
4.392,-18.667,1.412
3.765,-17.882,1.412
3.294,-16.941,1.725
3.294,-16.471,1.725
3.294,-15.843,2.039
2.98,-15.529,2.039
2.824,-14.588,2.039
2.98,-14.118,1.882
2.824,-13.02,1.882
2.824,-12.235,1.882
3.137,-11.608,1.725
3.294,-10.98,1.569
3.294,-10.667,1.412
3.294,-10.039,0.941
3.608,-9.882,1.255
3.451,-9.412,1.255
3.137,-9.098,1.412
2.98,-9.098,1.412
2.353,-9.098,1.255
2.196,-8.941,1.098
1.412,-8.471,0.784
0.941,-7.843,0.941
0.314,-7.373,0.627
0.627,-6.431,0.314
1.255,-6.118,0.471
1.725,-5.49,0.471
2.196,-5.333,0.314
3.137,-5.02,0.627
3.451,-4.706,0.784
4.078,-4.863,1.098
3.765,-5.02,1.412
3.608,-5.176,1.412
3.451,-5.333,2.039
3.608,-5.961,2.196
3.765,-6.118,2.196
3.765,-5.961,2.039
3.137,-6.275,2.196
2.667,-6.431,2.353
2.51,-6.118,2.51
1.725,-6.118,2.824
1.725,-6.275,2.51
0.941,-6.588,2.824
0.627,-6.588,2.98
0.627,-7.059,3.137
0.627,-7.059,2.98
0.784,-7.216,3.137
1.098,-7.059,3.451
1.098,-7.216,3.608
1.725,-7.373,3.451
1.725,-7.529,3.765
2.196,-8,4.392
2.824,-8.471,4.078
3.137,-8.784,4.392
4.078,-9.255,4.392
4.549,-9.569,5.02
5.02,-9.725,4.706
5.176,-9.412,5.176
4.863,-9.098,4.549
4.706,-9.098,4.549
4.863,-8.784,4.392
5.02,-9.725,4.549
5.333,-9.725,4.706
5.333,-10.824,4.863
5.176,-11.137,4.549
4.549,-11.765,4.863
4.078,-11.922,4.392
3.922,-12.078,4.235
3.608,-11.922,3.922
3.608,-11.608,3.765
4.078,-11.294,3.608
4.235,-11.137,3.294
4.549,-10.98,3.137
4.863,-10.353,2.824
4.863,-10.196,2.824
4.863,-9.569,2.667
4.863,-9.569,2.667
4.549,-9.098,2.51
4.235,-8.627,2.667
3.922,-8.314,2.98
3.922,-8.157,2.824
3.922,-8.157,2.51
3.922,-8,2.51
3.922,-8.157,2.667
3.922,-8.314,2.824
3.765,-8.157,3.137
3.765,-8.627,2.98
3.765,-8.627,2.98
3.922,-8.784,3.294
3.922,-9.255,3.137
4.235,-9.098,3.137
4.078,-9.569,2.98
4.235,-9.412,2.824
4.549,-9.725,2.667
4.863,-9.882,2.353
5.333,-10.039,2.51
6.118,-10.51,3.137
6.588,-10.824,3.294
6.902,-11.137,4.078
7.529,-11.294,4.549
8,-12.078,5.333
8.941,-12.078,6.275
9.412,-12.235,6.431
10.039,-12.863,6.902
10.039,-13.333,7.059
10.667,-12.863,6.902
10.667,-12.863,6.588
10.353,-12.392,5.961
9.882,-12.078,5.176
9.569,-12.078,5.02
8.627,-11.765,4.392
7.843,-11.765,4.235
7.059,-11.608,4.078
6.745,-11.608,4.078
5.647,-11.137,3.765
5.333,-10.667,3.608
5.333,-10.98,3.608
5.333,-12.549,3.765
5.333,-13.176,3.765
5.647,-14.431,4.235
5.647,-15.059,4.078
5.804,-15.529,4.549
6.275,-14.745,4.392
6.275,-14.275,4.235
6.902,-14.118,3.608
6.745,-13.961,2.98
7.059,-14.275,2.667
6.745,-14.745,2.51
6.745,-15.529,2.51
6.275,-16.157,3.294
6.118,-16.314,3.451
5.176,-15.843,4.235
4.706,-15.686,3.922
3.922,-15.216,3.922
3.765,-14.902,3.608
3.294,-14.275,2.98
2.98,-14.118,2.667
2.667,-13.647,2.51
2.196,-12.863,2.039
2.51,-12.706,2.196
2.196,-11.765,2.353
2.353,-11.608,2.51
1.882,-11.137,2.667
1.412,-10.98,3.137
1.098,-10.667,3.137
0.941,-10.196,2.824
0.941,-9.725,2.824
0.941,-9.255,2.353
0.784,-8.784,2.353
0.784,-8.471,2.039
1.255,-8,1.725
1.412,-7.843,1.725
1.725,-7.529,1.882
1.725,-7.686,1.882
2.039,-7.216,1.882
2.039,-7.216,1.882
2.196,-7.529,1.882
2.353,-7.059,1.882
2.196,-7.216,1.882
2.353,-6.902,1.569
2.196,-7.059,1.725
1.725,-7.059,1.255
1.882,-6.588,1.255
1.725,-6.902,1.098
1.569,-7.216,1.098
1.725,-7.216,1.098
1.725,-7.686,1.098
1.725,-7.843,1.255
1.412,-8.471,0.784
1.412,-8.627,0.784
1.412,-8.941,0.627
1.255,-9.098,0.627
1.255,-9.569,0.627
1.412,-9.098,0.314
1.569,-9.569,0.157
1.725,-10.039,0
1.569,-10.353,0
1.255,-10.196,-0.157
0.941,-10.667,-0.157
0.784,-10.51,-0.314
0.471,-10.196,-0.157
0.471,-10.039,0
0.627,-9.882,-0.314
0.784,-10.196,-0.627
0.941,-10.353,-0.784
1.098,-10.824,-1.725
1.098,-10.98,-1.882
0,-10.51,-2.667
-0.314,-10.667,-2.667
-1.255,-10.51,-3.137
-1.098,-10.353,-3.294
-1.098,-10.824,-3.294
-1.412,-12.235,-3.137
-1.412,-12.863,-3.294
-0.157,-14.275,-4.392
0.314,-14.745,-4.392
2.039,-15.843,-4.392
3.922,-17.098,-4.863
4.235,-17.882,-4.863
4.706,-18.51,-4.078
5.333,-18.824,-4.078
4.392,-18.196,-3.294
4.863,-17.725,-2.51
8.627,-17.569,-2.98
14.431,-16.784,-4.078
16.941,-15.373,-3.922
15.059,-11.765,-6.588
12.863,-10.824,-3.922
21.804,-10.353,-3.608
21.333,-10.51,-2.98
17.569,-8.471,-4.706
12.549,-6.118,-5.647
12.392,-5.176,-6.902
14.431,-5.02,-5.176
14.275,-4.863,-3.608
13.02,-5.333,-2.667
12.078,-5.333,-2.824
11.451,-5.333,-2.824
11.137,-4.549,-3.137
10.98,-4.706,-3.137
9.569,-4.235,-2.51
9.882,-4.392,-2.353
11.765,-3.294,-2.039
13.02,-2.824,-2.196
13.176,-2.98,-2.667
10.667,-5.176,-2.039
6.588,-5.176,-0.627
13.49,-10.667,5.49
14.275,-13.961,9.569
5.333,-14.275,11.922
2.196,-13.647,10.51
4.235,-13.647,6.275
12.078,-13.647,3.922
10.353,-14.118,2.51
5.49,-13.49,-1.412
5.333,-13.176,-3.137
5.961,-13.49,-6.745
7.373,-13.333,-8.157
11.137,-12.549,-10.196
9.098,-12.078,-10.667
6.118,-12.078,-10.196
-0.471,-10.039,-10.353
-3.608,-8.941,-10.667
-9.569,-9.412,-10.196
-11.451,-10.039,-8.784
-12.392,-10.98,-5.647
-5.333,-11.608,-3.922
-0.784,-12.863,-3.765
3.137,-14.745,-3.137
3.608,-16.627,-1.725
2.039,-19.137,1.255
-0.157,-18.98,2.039
1.725,-15.216,-3.451
0,-14.902,-7.686
-2.353,-14.275,-8.157
-4.392,-13.49,-7.843
-3.451,-12.078,-8
-1.882,-10.824,-7.529
-2.039,-10.824,-6.745
-0.784,-10.51,-5.333
-1.569,-10.51,-4.392
-2.667,-10.667,-3.608
-1.725,-10.51,-3.137
-0.784,-10.51,-3.294
-1.725,-10.196,-2.51
-2.196,-9.725,-2.353
-2.824,-8.471,-2.353
-2.196,-7.529,-3.765
-1.569,-7.529,-4.706
0.314,-6.118,-5.804
1.098,-5.333,-5.961
0.784,-4.863,-5.333
0.314,-5.176,-4.863
-1.725,-4.706,-2.667
-1.882,-4.549,-2.353
-1.098,-3.451,-2.51
0,-3.137,-2.824
0,-2.667,-3.608
-0.471,-2.667,-3.922
-0.627,-2.98,-3.451
-0.314,-2.824,-3.922
-0.941,-3.294,-3.137
-1.412,-4.078,-4.235
0.157,-4.392,-4.235
1.412,-5.02,-3.608
3.137,-5.49,-3.137
0.627,-5.647,-2.196
2.039,-5.176,-4.078
-2.353,-8.314,-2.51
1.725,-8.157,-4.078
1.725,-8.784,-3.137
1.098,-8.471,-5.02
2.196,-10.039,-4.392
0.471,-8.627,-4.706
2.98,-10.039,-6.275
-1.725,-10.51,-8.941
4.078,-9.725,-8.784
-0.314,-9.725,-7.373
3.765,-9.882,-7.373
2.039,-9.569,-7.373
2.353,-9.882,-6.431
1.255,-8.627,-8
1.412,-8.314,-9.098
0.941,-8.157,-8.941
0.627,-7.216,-8.627
0.471,-7.059,-8.314
1.882,-7.059,-7.686
1.725,-7.373,-6.275
3.137,-8.471,-5.49
2.353,-8,-5.647
0.627,-7.686,-5.961
-0.784,-7.373,-4.863
-0.471,-7.059,-5.176
-0.627,-6.588,-3.922
-1.882,-6.588,-3.608
-4.078,-8.314,-1.098
-3.608,-10.353,-1.098
-3.922,-11.451,-1.098
-4.392,-11.451,-3.451
-3.922,-11.608,-4.706
-3.294,-12.078,-6.902
-2.824,-12.235,-7.686
-2.51,-11.137,-8.471
-0.314,-11.137,-8.314
0.314,-10.98,-7.686
0.627,-9.725,-5.02
-1.255,-8.314,-3.451
-2.667,-9.412,-2.824
-2.98,-9.882,-2.824
-2.824,-10.667,-2.51
-2.353,-10.196,-3.294
-2.353,-10.196,-3.294
-1.569,-11.451,-2.98
-1.882,-11.294,-1.725
-0.941,-12.235,-0.784
-2.039,-12.863,-0.314
-4.235,-12.863,-0.157
-2.51,-13.176,0.627
-2.039,-13.02,1.255
0.471,-12.392,2.039
0.941,-11.765,2.039
0.784,-10.667,1.412
1.255,-10.353,0.784
2.51,-9.569,0.627
3.608,-8.941,0.314
2.98,-8,-0.157
1.882,-7.059,-1.098
1.569,-6.588,-2.353
3.922,-5.804,-4.392
5.333,-5.333,-5.02
5.49,-4.706,-6.902
-1.882,-3.922,-6.902
-3.294,-3.451,-6.902
3.451,-3.294,-7.843
5.176,-3.137,-8.157
5.804,-4.235,-8.157
5.804,-5.176,-7.059
7.529,-5.49,-6.902
4.235,-6.745,-5.176
4.078,-7.373,-5.647
3.294,-9.255,-4.706
4.392,-9.882,-5.49
4.706,-11.294,-4.863
6.431,-11.608,-5.49
10.667,-10.98,-6.118
9.725,-9.569,-8.471
8.941,-9.255,-7.686
10.196,-8.627,-5.804
10.039,-8.314,-4.549
9.255,-8.784,-2.039
8.941,-9.412,-0.627
7.843,-9.569,-0.627
2.98,-9.725,-1.569
7.216,-8.314,-0.471
-0.784,-8.314,1.412
7.843,-6.745,0.784
10.667,-11.922,2.667
12.549,-10.039,1.569
10.51,-9.882,0.941
14.118,-11.451,-1.098
13.961,-12.078,-2.353
12.392,-12.863,-3.765
11.137,-13.333,-4.392
10.353,-13.961,-5.333
10.196,-14.745,-5.804
12.549,-15.373,-6.431
15.843,-16,-5.961
16.314,-15.843,-5.647
16.784,-15.373,-6.588
16.314,-15.059,-5.961
12.392,-14.902,-5.49
10.824,-14.588,-5.49
9.255,-13.49,-6.431
8.314,-13.02,-6.275
7.216,-12.549,-6.431
5.49,-10.824,-6.275
5.176,-10.51,-5.804
5.961,-9.412,-5.176
6.902,-9.098,-4.863
8.157,-8.784,-3.608
9.098,-8.941,-2.667
9.412,-8.784,-2.353
9.412,-8.627,-2.196
9.255,-8.627,-2.353
8.784,-8.784,-2.667
8.314,-8.941,-2.824
8.157,-9.255,-3.294
7.843,-9.412,-3.294
7.686,-9.725,-3.608
7.843,-9.882,-3.451
7.843,-10.039,-3.137
8,-10.196,-2.98
8.314,-10.51,-2.667
8,-10.51,-2.353
7.529,-10.51,-1.725
7.216,-10.667,-1.725
6.431,-10.98,-1.255
5.961,-10.98,-1.255
5.02,-10.51,-1.098
4.549,-10.51,-0.784
3.451,-10.196,-1.098
2.353,-9.882,-1.255
2.196,-9.569,-1.098
1.725,-9.098,-1.255
1.569,-8.627,-1.569
1.569,-8,-1.255
1.725,-8,-1.255
1.569,-8,-1.412
1.725,-7.686,-1.255
1.725,-7.843,-0.941
1.725,-7.529,-0.784
1.882,-7.373,-0.627
1.725,-7.059,-0.627
1.882,-7.059,-0.627
1.569,-7.059,-0.784
1.098,-7.059,-0.627
0.784,-6.745,-0.941
0.314,-6.275,-1.255
0.157,-6.275,-0.784
0.471,-6.588,0
0.627,-6.745,0.314
1.098,-7.373,1.725
2.039,-8,2.667
2.353,-8.157,2.667
3.922,-8.784,3.294
4.549,-9.255,3.294
4.392,-9.882,3.294
3.922,-10.196,2.824
2.98,-10.353,2.824
1.882,-10.353,2.039
1.412,-10.51,1.882
1.255,-10.353,1.412
1.255,-10.196,1.255
2.039,-10.353,1.098
2.039,-10.353,1.098
2.667,-10.353,1.412
3.294,-10.667,1.725
3.608,-10.667,1.725
4.078,-10.51,2.353
4.078,-10.353,2.667
3.922,-10.51,3.137
4.235,-10.196,3.608
4.078,-10.667,4.078
4.078,-11.765,3.922
4.235,-12.235,3.922
5.176,-13.333,3.922
5.333,-13.49,3.608
5.804,-13.804,4.078
5.647,-13.961,3.922
5.804,-13.804,3.765
6.118,-13.333,4.235
5.961,-13.176,4.078
6.275,-12.549,4.078
6.588,-11.922,3.765
6.275,-11.451,3.451
6.431,-11.137,2.98
6.431,-10.98,3.294
6.275,-11.922,2.98
6.588,-11.922,3.451
7.373,-13.176,3.765
7.843,-13.49,4.235
8.941,-14.275,4.706
9.569,-14.745,5.176
10.51,-14.275,5.804
10.667,-14.275,5.961
10.98,-14.118,5.804
11.294,-13.49,5.647
11.451,-13.49,5.647
11.137,-13.333,5.02
11.451,-13.02,5.176
10.824,-12.863,4.549
10.824,-12.235,4.392
10.51,-11.922,4.078
10.353,-11.765,3.765
10.039,-11.451,3.451
9.255,-11.137,3.294
9.255,-11.137,3.137
8.941,-11.451,3.137
8.784,-12.235,2.98
8.627,-12.549,3.137
8.784,-13.333,3.137
8.941,-13.176,3.608
9.255,-12.863,3.608
9.412,-12.706,3.294
9.569,-11.922,2.353
8.941,-12.549,1.725
8.627,-13.02,1.412
8.157,-14.275,0.941
7.843,-14.745,1.255
7.216,-15.216,2.039
6.588,-15.686,2.667
5.804,-16,2.824
4.863,-16.627,2.667
4.706,-16.627,2.51
4.235,-15.843,2.039
4.235,-15.373,1.725
4.392,-15.059,1.098
4.392,-14.745,0.941
4.549,-15.059,0.784
4.392,-15.216,1.255
4.235,-15.059,1.255
3.765,-14.902,1.725
3.451,-14.745,1.882
2.667,-14.118,2.51
2.667,-13.804,2.667
2.51,-13.333,2.667
1.882,-12.706,2.667
2.039,-12.392,2.353
2.196,-11.294,2.353
2.039,-11.137,2.196
2.196,-10.353,1.882
2.51,-10.196,1.882
2.824,-9.882,1.569
3.451,-9.725,1.412
3.608,-9.725,1.569
3.922,-9.412,1.412
4.235,-9.725,1.569
4.706,-10.196,1.098
4.549,-10.353,1.412
4.392,-10.824,1.098
3.608,-11.137,0.784
3.294,-11.137,0.784
2.824,-10.98,0.471
2.51,-10.667,0.627
2.353,-9.725,0.627
3.137,-9.725,0.627
3.922,-9.725,0.941
4.863,-9.882,1.412
4.863,-9.882,1.569
4.549,-10.196,1.569
3.922,-10.196,1.255
2.667,-9.725,0.941
2.039,-9.255,0.941
0.941,-8.314,0.471
0.627,-7.529,0
0.784,-7.059,0
0.471,-6.431,-0.471
0.471,-6.118,-0.157
0.627,-6.275,-0.314
0.784,-5.961,0.627
0.784,-6.275,0.471
0.941,-6.431,1.098
0.784,-6.588,1.412
0.941,-6.902,1.725
0.784,-7.059,2.039
0.941,-7.843,2.353
1.098,-7.843,2.667
1.412,-8.314,3.137
1.725,-8.157,3.608
2.196,-8,3.765
2.039,-7.843,4.235
2.196,-8,4.235
2.824,-8.157,4.392
3.137,-8.627,4.863
3.137,-9.098,4.549
3.137,-10.196,4.392
2.824,-10.353,4.078
2.353,-11.137,3.294
2.039,-11.451,2.98
1.412,-12.078,2.039
1.098,-12.235,2.039
0.941,-12.706,1.412
1.412,-12.863,1.098
1.569,-12.706,1.255
1.569,-12.863,1.412
1.725,-13.02,1.725
1.569,-12.863,2.196
1.569,-12.863,2.353
1.569,-12.863,2.98
1.412,-12.549,3.137
1.412,-12.706,3.608
1.569,-12.706,3.294
1.569,-12.549,3.294
2.51,-12.863,2.98
2.667,-13.02,2.98
3.294,-13.176,3.137
4.078,-13.49,3.137
4.235,-13.333,2.824
4.706,-13.49,2.667
4.863,-13.49,2.667
5.49,-13.333,2.667
5.961,-13.333,2.353
6.745,-13.02,2.353
6.902,-12.706,2.039
7.529,-12.549,2.039
8.157,-12.392,2.667
8.784,-12.392,2.98
9.255,-12.235,3.608
9.569,-12.235,4.235
10.039,-11.922,5.02
9.725,-11.608,5.647
9.725,-11.608,5.804
8.784,-11.137,5.49
8.627,-10.667,5.49
8.471,-10.353,5.333
8.627,-10.51,5.333
8.627,-10.98,5.02
9.255,-11.451,5.176
9.412,-11.451,5.176
9.569,-11.451,5.02
9.725,-11.608,5.02
9.725,-11.451,4.706
9.725,-11.451,4.706
9.882,-11.294,4.392
9.255,-10.667,4.078
9.098,-10.824,3.922
8.314,-10.51,3.765
8.157,-10.196,3.608
7.529,-10.353,3.294
7.529,-10.51,3.294
7.216,-11.765,3.137
7.059,-13.176,3.608
7.216,-13.647,3.765
7.686,-14.745,4.549
7.529,-14.902,4.863
7.373,-14.745,4.706
7.529,-14.431,4.549
7.373,-14.431,3.294
6.902,-15.529,2.353
6.745,-16,2.196
6.745,-17.098,1.725
6.431,-17.569,1.882
5.804,-18.353,2.353
5.333,-18.353,2.353
4.392,-18.824,2.51
3.137,-18.824,2.196
2.98,-18.51,2.039
2.196,-18.039,1.725
1.725,-17.255,1.725
1.255,-15.843,1.569
1.098,-15.373,1.569
1.255,-14.118,1.882
1.569,-13.176,2.667
1.725,-12.863,2.824
1.882,-12.078,2.98
2.196,-11.765,3.294
1.725,-11.451,3.137
2.039,-11.137,3.137
2.353,-10.667,2.824
2.353,-10.196,2.51
2.353,-10.039,2.667
2.824,-9.725,2.51
3.137,-9.569,2.353
3.451,-9.098,2.51
3.608,-8.784,2.51
3.765,-8.784,2.353
4.078,-8.471,2.196
4.235,-8.314,2.196
4.392,-8.157,1.882
4.235,-8.157,1.725
4.078,-8,1.569
3.765,-8,1.725
4.078,-8.471,1.412
3.608,-8.314,1.569
3.451,-8.157,1.882
3.608,-8.157,1.882
3.451,-8,1.882
3.765,-8,2.039
3.608,-8,2.196
3.451,-7.843,2.353
3.608,-8,2.667
3.608,-8.471,2.51
3.294,-8,2.824
3.294,-8,2.667
2.824,-7.843,2.51
2.824,-7.843,2.039
2.353,-7.373,2.039
2.353,-7.373,2.039
2.039,-7.216,1.725
1.882,-6.902,1.255
1.882,-6.588,1.098
1.725,-6.431,1.412
1.725,-6.588,1.725
2.039,-6.902,2.039
2.196,-7.216,2.196
2.196,-7.373,2.196
2.667,-8.314,2.51
2.824,-8,2.353
2.824,-8.471,2.353
2.824,-8.314,2.196
2.824,-7.529,2.039
2.667,-6.902,2.039
2.667,-6.745,2.039
2.98,-6.588,1.882
3.294,-7.059,2.196
3.608,-7.373,2.51
3.922,-7.843,2.51
3.922,-8.314,2.196
3.451,-8.627,2.353
3.294,-8.784,2.51
2.98,-9.412,2.824
2.824,-9.725,2.667
2.98,-10.196,2.98
3.137,-10.196,2.98
3.294,-10.51,3.137
3.294,-10.353,3.765
3.294,-10.51,3.608
3.294,-10.51,3.451
3.137,-10.353,3.137
2.98,-10.039,2.98
2.667,-9.882,2.98
2.51,-10.039,2.98
2.51,-9.882,2.51
2.51,-9.882,2.667
2.353,-9.882,2.353
2.51,-10.039,2.51
2.824,-10.51,2.98
2.98,-10.98,2.667
3.137,-11.765,3.294
3.608,-12.235,3.294
3.922,-12.549,3.608
4.392,-13.333,3.922
4.863,-13.333,4.078
5.49,-13.647,3.922
5.804,-13.961,4.235
6.588,-13.961,4.078
7.373,-13.961,4.078
7.686,-13.804,4.078
8.314,-14.118,4.235
8.627,-14.275,4.706
9.412,-14.588,5.804
9.882,-14.745,6.588
10.196,-14.275,7.059
10.667,-13.647,7.843
10.824,-13.49,8.157
10.51,-13.176,8.157
10.51,-13.49,8
10.039,-13.333,7.529
9.725,-13.49,6.745
9.412,-13.49,6.745
8.784,-13.333,6.588
8.471,-13.333,6.275
7.843,-13.02,6.275
7.843,-12.235,5.961
7.216,-12.078,5.647
6.902,-11.765,5.333
6.588,-11.294,5.02
6.431,-10.824,4.392
6.431,-10.98,4.078
6.902,-11.922,4.078
6.902,-12.549,4.078
7.529,-13.333,3.922
7.843,-14.275,3.922
8.627,-14.118,4.078
8.941,-13.647,3.765
9.098,-13.647,3.294
8.941,-12.863,2.353
8.941,-13.02,2.039
8,-13.804,1.569
6.431,-14.745,1.255
6.431,-15.059,0.941
5.333,-16,1.255
4.706,-16.314,1.569
3.451,-16.627,1.412
3.137,-16.627,1.412
2.824,-16.471,1.725
2.667,-15.686,1.255
2.824,-15.686,1.569
2.98,-14.745,1.882
2.98,-14.118,2.039
3.608,-13.333,2.667
3.451,-13.02,2.667
3.451,-12.392,3.137
3.451,-12.078,3.294
3.451,-11.765,3.137
3.137,-11.137,2.824
3.451,-10.98,2.51
3.451,-10.667,2.353
3.608,-10.51,2.039
3.451,-10.039,1.725
3.922,-9.725,1.569
4.078,-9.569,1.725
3.922,-9.412,1.412
4.392,-9.098,1.255
4.549,-9.098,1.255
4.706,-8.627,1.255
4.863,-8.471,1.255
5.176,-8.471,1.255
5.647,-8.471,1.569
5.49,-8.627,1.412
5.333,-8.941,1.412
4.706,-8.784,1.412
4.706,-8.784,1.412
4.392,-8.627,1.255
3.765,-8.471,1.569
3.608,-8.314,1.569
3.451,-8.314,1.255
3.451,-8.627,1.412
3.294,-8.314,1.412
3.294,-8.471,1.725
3.451,-8.627,1.569
3.137,-9.255,1.882
3.137,-9.569,1.882
3.294,-9.412,1.882
3.137,-9.725,1.725
2.98,-9.569,1.569
2.667,-9.725,1.725
2.353,-9.255,1.569
2.039,-8.784,1.098
2.196,-8.627,0.784
1.882,-8.157,0.784
2.196,-8,0.941
2.353,-7.843,1.098
2.51,-7.843,1.412
2.51,-8,1.569
2.667,-8.471,1.882
2.353,-8.784,1.412
2.196,-8.941,1.725
2.51,-8.784,1.412
2.196,-8.471,1.412
2.039,-8.157,1.255
1.882,-8,0.941
1.569,-7.843,0.941
1.882,-7.843,1.098
2.196,-8.314,1.255
2.51,-8.627,1.569
3.294,-9.098,1.725
3.451,-9.569,1.725
3.608,-9.882,1.882
3.608,-10.039,2.353
3.451,-10.353,2.667
3.137,-10.353,2.51
3.294,-10.353,2.667
3.451,-10.667,2.98
3.294,-10.667,2.824
3.608,-10.667,2.824
3.765,-10.353,2.824
3.608,-10.353,2.51
3.608,-10.353,2.824
3.451,-10.196,2.824
3.608,-10.039,2.824
3.765,-10.039,3.137
3.608,-10.196,3.137
3.608,-10.196,2.98
3.608,-10.196,2.824
3.922,-10.353,3.137
3.765,-10.353,3.294
4.078,-10.98,3.608
4.078,-11.137,3.765
4.078,-11.608,4.235
4.549,-12.235,4.549
4.706,-12.392,4.706
4.863,-12.392,4.392
5.02,-12.392,4.235
5.176,-12.235,4.235
5.804,-12.078,4.392
6.118,-11.765,4.549
7.059,-11.451,4.863
7.529,-11.451,5.176
8.314,-11.451,5.647
8.941,-11.765,5.961
9.569,-12.078,7.216
10.196,-12.078,7.686
10.667,-12.078,7.843
10.824,-11.451,7.529
10.667,-11.137,7.059
10.039,-10.98,6.275
9.725,-10.98,5.647
8.784,-11.137,5.176
8.157,-11.137,5.02
7.216,-11.608,4.706
6.588,-11.765,4.235
6.275,-12.078,4.392
6.118,-12.392,4.235
5.961,-12.549,4.549
6.118,-12.392,4.392
6.588,-12.235,4.392
6.431,-11.451,4.392
6.588,-10.667,3.922
6.902,-10.51,3.922
6.902,-10.824,3.294
7.373,-10.98,3.137
7.686,-12.235,3.137
8.314,-12.706,3.137
8.627,-13.647,3.451
8.941,-14.275,3.608
9.098,-14.118,3.451
9.255,-13.647,2.98
9.412,-13.49,2.51
8.941,-13.961,1.882
8.784,-14.275,1.725
8,-15.529,1.725
7.216,-16.627,1.569
6.745,-17.255,1.569
5.647,-17.882,1.255
5.176,-18.039,1.255
4.235,-17.725,0.941
3.765,-17.412,0.627
3.137,-16.627,0.314
2.824,-16.157,0.471
3.137,-15.686,0.784
3.294,-15.059,0.784
3.451,-14.431,0.627
3.294,-13.647,0.941
2.824,-13.49,1.412
2.667,-12.706,2.039
2.667,-12.078,2.353
2.51,-11.922,2.51
2.51,-11.294,2.196
2.667,-10.98,2.196
2.51,-10.353,2.196
2.667,-10.196,2.196
2.667,-9.882,1.725
2.824,-9.412,1.412
3.137,-9.098,1.725
2.824,-9.098,1.569
3.294,-8.784,1.569
3.294,-8.784,1.882
3.451,-8.627,1.725
3.294,-8.471,2.039
3.294,-8.157,1.882
3.294,-8.471,1.569
2.824,-8,1.569
2.51,-7.843,1.412
2.353,-8,1.569
2.196,-7.686,1.412
2.196,-7.216,1.412
1.882,-6.745,1.412
1.882,-6.431,1.412
1.725,-6.118,1.412
1.569,-6.118,1.412
1.725,-5.961,1.412
1.882,-5.961,1.569
2.353,-5.49,1.412
2.667,-5.647,1.725
3.294,-6.275,1.882
3.765,-6.588,2.196
3.608,-6.902,2.196
3.608,-7.216,1.725
3.294,-7.529,1.725
3.294,-7.686,1.569
3.137,-7.843,1.725
2.98,-7.686,1.725
3.294,-7.529,1.569
3.294,-7.373,1.412
3.137,-7.373,1.569
3.294,-7.686,1.725
3.294,-8,2.039
3.294,-8.627,2.353
3.137,-8.627,2.353
2.824,-8.941,2.353
2.824,-8.784,2.353
2.824,-9.098,1.882
2.353,-8.627,2.039
2.196,-8.627,1.882
2.196,-8.941,1.725
2.196,-9.098,1.725
2.353,-9.725,1.725
2.353,-9.882,1.882
2.824,-10.51,2.196
2.98,-10.667,2.353
3.137,-11.137,2.353
3.294,-12.078,2.51
2.98,-12.392,2.196
2.98,-12.706,2.667
3.137,-12.863,2.667
3.137,-13.02,2.667
3.294,-12.863,2.667
3.451,-13.02,2.51
3.451,-12.863,2.51
3.451,-12.863,2.196
3.137,-12.863,2.196
2.98,-12.549,2.196
2.51,-12.392,2.353
2.824,-12.392,2.51
2.824,-12.549,2.667
2.98,-12.863,2.353
3.294,-13.02,2.51
3.922,-13.49,2.667
4.235,-13.49,2.824
4.706,-13.804,3.294
4.863,-14.118,3.294
5.647,-14.745,3.765
5.804,-14.431,3.608
5.804,-14.275,3.451
5.961,-13.176,3.294
6.118,-12.863,2.98
6.588,-11.608,2.51
6.902,-11.137,2.196
7.216,-10.51,2.51
7.686,-10.353,2.98
8.157,-10.196,3.137
8.471,-10.51,3.608
8.471,-10.824,3.922
8.314,-11.451,4.235
8,-11.608,4.078
8.314,-11.137,3.922
8.471,-10.98,3.922
8.471,-10.98,3.922
8.314,-10.98,3.451
8.314,-10.98,3.608
8.471,-11.451,2.824
8.471,-11.451,2.824
8.784,-11.765,2.824
9.098,-11.451,2.667
9.255,-10.98,2.667
9.569,-10.667,2.353
9.569,-10.353,2.51
9.412,-10.196,2.353
9.412,-9.882,2.51
9.098,-9.725,2.667
8.784,-10.039,2.98
8.627,-10.353,2.98
8.627,-11.765,3.451
8.784,-12.392,3.608
8.627,-13.176,4.078
8.627,-13.49,4.235
9.098,-13.804,4.235
8.941,-13.647,3.608
8.784,-13.961,2.824
8.157,-14.745,1.882
8.157,-15.216,1.255
7.529,-16.314,0.941
7.216,-16.784,1.098
6.431,-17.098,1.098
5.647,-17.725,0.941
5.176,-17.569,0.941
4.392,-17.412,0.941
3.765,-17.255,0.784
2.824,-17.255,0.784
2.667,-17.098,0.784
2.353,-16.314,0.784
2.196,-15.373,1.255
2.039,-15.216,1.412
1.882,-14.118,2.039
2.039,-13.647,2.353
1.725,-13.176,2.667
2.039,-12.863,3.137
2.353,-12.549,3.451
2.039,-12.078,3.608
2.196,-12.078,3.451
2.196,-11.608,3.294
2.824,-11.765,3.294
2.824,-10.824,2.51
2.667,-10.51,2.51
2.98,-10.353,2.353
2.98,-10.039,1.882
3.137,-9.882,1.725
3.294,-9.725,1.725
3.294,-9.725,1.882
3.137,-9.412,1.412
3.294,-9.255,1.255
3.294,-9.098,1.255
2.98,-8.941,1.098
3.137,-9.098,1.412
2.98,-8.941,1.255
2.824,-8.941,1.412
2.824,-8.784,1.255
2.667,-8.784,1.412
2.353,-8.627,1.725
2.196,-8.314,1.412
1.882,-8.157,1.569
1.882,-8,1.098
2.039,-7.843,1.255
2.667,-8.157,1.255
2.824,-7.843,1.255
2.98,-8,1.412
3.137,-8.314,1.255
3.294,-8.627,1.098
2.98,-9.098,0.784
2.824,-9.098,0.627
